esp_timestamp_us,host_timestamp_s,unified_time_s,accel_x_raw,accel_y_raw,accel_z_raw,gyro_x_raw,gyro_y_raw,gyro_z_raw,accel_x_g,accel_y_g,accel_z_g,gyro_x_dps,gyro_y_dps,gyro_z_dps,temperature_c,fsync_flag
389646413,21758.503158,1777900590.114612,-269,-1727,-1028,-3,-1,-1,-0.131348,-0.843262,-0.501953,-0.183105,-0.061035,-0.061035,21.07,0
389647425,21758.503192,1777900590.115624,-265,-1732,-1033,-3,-1,-1,-0.129395,-0.845703,-0.504395,-0.183105,-0.061035,-0.061035,21.17,0
389648436,21758.503204,1777900590.116635,-266,-1737,-1039,-3,-1,-2,-0.129883,-0.848145,-0.507324,-0.183105,-0.061035,-0.122070,21.21,0
389649450,21758.503212,1777900590.117649,-267,-1736,-1037,-3,-2,-1,-0.130371,-0.847656,-0.506348,-0.183105,-0.122070,-0.061035,21.17,0
389650460,21758.503218,1777900590.118659,-265,-1733,-1031,-3,-2,-1,-0.129395,-0.846191,-0.503418,-0.183105,-0.122070,-0.061035,21.33,0
389651474,21758.503224,1777900590.119673,-269,-1731,-1026,-4,-1,0,-0.131348,-0.845215,-0.500977,-0.244141,-0.061035,0.000000,21.14,1
389652485,21758.503231,1777900590.120684,-272,-1732,-1025,-4,-1,0,-0.132812,-0.845703,-0.500488,-0.244141,-0.061035,0.000000,21.20,0
389653498,21758.503237,1777900590.121697,-270,-1732,-1029,-3,0,0,-0.131836,-0.845703,-0.502441,-0.183105,0.000000,0.000000,21.06,0
389654510,21758.511274,1777900590.122709,-269,-1733,-1029,-3,0,-1,-0.131348,-0.846191,-0.502441,-0.183105,0.000000,-0.061035,21.01,0
389655521,21758.511307,1777900590.123720,-269,-1736,-1026,-4,-1,-2,-0.131348,-0.847656,-0.500977,-0.244141,-0.061035,-0.122070,21.07,0
389656535,21758.511317,1777900712.771897,-269,-1736,-1029,-4,-1,-1,-0.131348,-0.847656,-0.502441,-0.244141,-0.061035,-0.061035,21.14,0
389657548,21758.511326,1777900691.463615,-271,-1735,-1032,-3,-1,0,-0.132324,-0.847168,-0.503906,-0.183105,-0.061035,0.000000,21.15,0
389658561,21758.511335,1777900671.161314,-270,-1733,-1029,-3,-1,0,-0.131836,-0.846191,-0.502441,-0.183105,-0.061035,0.000000,21.07,0
389659570,21758.511344,1777900649.811761,-272,-1732,-1033,-2,0,0,-0.132812,-0.845703,-0.504395,-0.122070,0.000000,0.000000,21.07,0
389660584,21758.511352,1777900629.894420,-274,-1734,-1037,-3,0,-1,-0.133789,-0.846680,-0.506348,-0.183105,0.000000,-0.061035,21.07,0
389661596,21758.511362,1777900608.468881,-272,-1734,-1033,-3,0,-1,-0.132812,-0.846680,-0.504395,-0.183105,0.000000,-0.061035,21.07,0
389662607,21758.519362,1777900586.993703,-271,-1735,-1032,-3,0,-1,-0.132324,-0.847168,-0.503906,-0.183105,0.000000,-0.061035,21.14,1
389663619,21758.519389,1777900620.757404,-271,-1734,-1035,-3,-1,0,-0.132324,-0.846680,-0.505371,-0.183105,-0.061035,0.000000,21.29,0
389664633,21758.519400,1777900629.675010,-271,-1734,-1037,-3,-1,1,-0.132324,-0.846680,-0.506348,-0.183105,-0.061035,0.061035,21.24,0
389665645,21758.519410,1777900628.515459,-271,-1735,-1036,-3,-2,-1,-0.132324,-0.847168,-0.505859,-0.183105,-0.122070,-0.061035,21.17,0
389666656,21758.519419,1777900623.863253,-271,-1737,-1035,-3,-2,-2,-0.132324,-0.848145,-0.505371,-0.183105,-0.122070,-0.122070,21.21,0
389667671,21758.519429,1777900616.824169,-271,-1735,-1035,-2,-1,-1,-0.132324,-0.847168,-0.505371,-0.122070,-0.061035,-0.061035,21.32,0
389668680,21758.519438,1777900607.822443,-271,-1733,-1036,-2,-1,0,-0.132324,-0.846191,-0.505859,-0.122070,-0.061035,0.000000,21.23,0
389669693,21758.519448,1777900598.864284,-269,-1734,-1032,-2,-1,-1,-0.131348,-0.846680,-0.503906,-0.122070,-0.061035,-0.061035,21.07,0
389670705,21758.527482,1777900588.337230,-269,-1734,-1030,-1,-1,-1,-0.131348,-0.846680,-0.502930,-0.061035,-0.061035,-0.061035,21.15,0
389671718,21758.527505,1777900602.098751,-270,-1729,-1033,-2,0,1,-0.131836,-0.844238,-0.504395,-0.122070,0.000000,0.061035,21.07,0
389672731,21758.527512,1777900608.427935,-270,-1727,-1033,-2,0,1,-0.131836,-0.843262,-0.504395,-0.122070,0.000000,0.061035,21.14,0
389673742,21758.527519,1777900609.983089,-272,-1732,-1032,-2,-1,0,-0.132812,-0.845703,-0.503906,-0.122070,-0.061035,0.000000,21.15,1
389674754,21758.527525,1777900608.365695,-273,-1737,-1036,-1,-2,-1,-0.133301,-0.848145,-0.505859,-0.061035,-0.122070,-0.061035,21.14,0
389675768,21758.527531,1777900605.310862,-272,-1737,-1033,-2,-2,0,-0.132812,-0.848145,-0.504395,-0.122070,-0.122070,0.000000,21.01,0
389676779,21758.527538,1777900601.008516,-269,-1737,-1028,-2,-1,1,-0.131348,-0.848145,-0.501953,-0.122070,-0.061035,0.061035,21.07,0
389677790,21758.527545,1777900595.559716,-271,-1736,-1033,-2,-1,1,-0.132324,-0.847656,-0.504395,-0.122070,-0.061035,0.061035,21.15,0
389678805,21758.535566,1777900590.127368,-274,-1731,-1032,-2,-1,0,-0.133789,-0.845215,-0.503906,-0.122070,-0.061035,0.000000,21.06,0
389679817,21758.535585,1777900590.128379,-272,-1730,-1028,-3,-2,0,-0.132812,-0.844727,-0.501953,-0.183105,-0.122070,0.000000,21.12,0
389680829,21758.535591,1777900590.129389,-272,-1734,-1030,-2,-2,0,-0.132812,-0.846680,-0.502930,-0.122070,-0.122070,0.000000,21.20,0
389681840,21758.535597,1777900590.130399,-274,-1736,-1030,-1,-2,1,-0.133789,-0.847656,-0.502930,-0.061035,-0.122070,0.061035,21.12,0
389682854,21758.535603,1777900590.131411,-271,-1735,-1029,-1,-2,1,-0.132324,-0.847168,-0.502441,-0.061035,-0.122070,0.061035,21.18,0
389683865,21758.535609,1777900590.132421,-269,-1735,-1029,-1,-1,1,-0.131348,-0.847168,-0.502441,-0.061035,-0.061035,0.061035,21.20,0
389684876,21758.535615,1777900590.133430,-271,-1733,-1030,-1,-1,1,-0.132324,-0.846191,-0.502930,-0.061035,-0.061035,0.061035,21.17,1
389685889,21758.535622,1777900590.134441,-271,-1730,-1033,-1,-1,2,-0.132324,-0.844727,-0.504395,-0.061035,-0.061035,0.122070,21.11,0
389686903,21758.543755,1777900590.135484,-270,-1732,-1034,-2,-1,0,-0.131836,-0.845703,-0.504883,-0.122070,-0.061035,0.000000,21.04,0
389687913,21758.543776,1777900590.136493,-270,-1735,-1031,-2,-1,-1,-0.131836,-0.847168,-0.503418,-0.122070,-0.061035,-0.061035,21.04,0
389688928,21758.543786,1777900590.137507,-271,-1734,-1028,-1,-1,0,-0.132324,-0.846680,-0.501953,-0.061035,-0.061035,0.000000,21.14,0
389689937,21758.543795,1777900590.138516,-269,-1733,-1030,-1,-1,0,-0.131348,-0.846191,-0.502930,-0.061035,-0.061035,0.000000,21.26,0
389690951,21758.543805,1777900590.139529,-268,-1732,-1030,-1,-1,1,-0.130859,-0.845703,-0.502930,-0.061035,-0.061035,0.061035,21.15,0
389691964,21758.543814,1777900590.140542,-270,-1732,-1031,-2,-2,1,-0.131836,-0.845703,-0.503418,-0.122070,-0.122070,0.061035,21.11,0
389692977,21758.543823,1777900590.141554,-268,-1732,-1032,-2,-2,2,-0.130859,-0.845703,-0.503906,-0.122070,-0.122070,0.122070,21.09,0
389693989,21758.543833,1777900590.142566,-266,-1729,-1031,-2,-2,1,-0.129883,-0.844238,-0.503418,-0.122070,-0.122070,0.061035,21.17,0
389694999,21758.551796,1777900590.143575,-268,-1731,-1032,-3,-1,0,-0.130859,-0.845215,-0.503906,-0.183105,-0.061035,0.000000,21.14,0
389696011,21758.551815,1777900590.144585,-269,-1734,-1033,-3,-1,-1,-0.131348,-0.846680,-0.504395,-0.183105,-0.061035,-0.061035,21.24,1
389697026,21758.551828,1777900590.145600,-268,-1734,-1033,-2,-1,-2,-0.130859,-0.846680,-0.504395,-0.122070,-0.061035,-0.122070,21.23,0
389698038,21758.551839,1777900590.146611,-269,-1735,-1032,-2,-1,-1,-0.131348,-0.847168,-0.503906,-0.122070,-0.061035,-0.061035,21.20,0
389699048,21758.551849,1777900590.147620,-273,-1733,-1029,-3,-1,0,-0.133301,-0.846191,-0.502441,-0.183105,-0.061035,0.000000,21.17,0
389700060,21758.551858,1777900590.148632,-273,-1731,-1029,-3,-1,0,-0.133301,-0.845215,-0.502441,-0.183105,-0.061035,0.000000,21.27,0
389701073,21758.551869,1777900590.149644,-271,-1732,-1030,-3,-1,-1,-0.132324,-0.845703,-0.502930,-0.183105,-0.061035,-0.061035,21.11,0
389702095,21758.551878,1777900590.150666,-270,-1732,-1032,-3,-1,0,-0.131836,-0.845703,-0.503906,-0.183105,-0.061035,0.000000,21.30,0
389703100,21758.559861,1777900590.151670,-270,-1733,-1035,-2,-1,1,-0.131836,-0.846191,-0.505371,-0.122070,-0.061035,0.061035,21.11,0
389704110,21758.559888,1777900590.152679,-271,-1737,-1035,-2,-1,1,-0.132324,-0.848145,-0.505371,-0.122070,-0.061035,0.061035,21.07,0
389705123,21758.559895,1777900590.153692,-272,-1736,-1031,-2,-1,-1,-0.132812,-0.847656,-0.503418,-0.122070,-0.061035,-0.061035,21.12,0
389706134,21758.559901,1777900590.154702,-271,-1733,-1030,-2,-1,-1,-0.132324,-0.846191,-0.502930,-0.122070,-0.061035,-0.061035,21.12,0
389707148,21758.559959,1777900590.155716,-270,-1734,-1032,-3,-1,0,-0.131836,-0.846680,-0.503906,-0.183105,-0.061035,0.000000,21.35,1
389708158,21758.559967,1777900590.156725,-270,-1734,-1031,-3,-2,0,-0.131836,-0.846680,-0.503418,-0.183105,-0.122070,0.000000,21.27,0
389709171,21758.559973,1777900590.157737,-272,-1734,-1031,-3,-2,-1,-0.132812,-0.846680,-0.503418,-0.183105,-0.122070,-0.061035,21.20,0
389710185,21758.559979,1777900590.158751,-272,-1734,-1029,-3,-1,0,-0.132812,-0.846680,-0.502441,-0.183105,-0.061035,0.000000,21.24,0
389711197,21758.567989,1777900590.159756,-269,-1733,-1030,-3,-1,-1,-0.131348,-0.846191,-0.502930,-0.183105,-0.061035,-0.061035,21.29,0
389712208,21758.568015,1777900590.160766,-269,-1732,-1032,-3,-1,0,-0.131348,-0.845703,-0.503906,-0.183105,-0.061035,0.000000,21.23,0
389713221,21758.568026,1777900590.161778,-270,-1734,-1030,-3,-1,-1,-0.131836,-0.846680,-0.502930,-0.183105,-0.061035,-0.061035,21.11,0
389714233,21758.568036,1777900590.162789,-271,-1736,-1029,-4,-1,-1,-0.132324,-0.847656,-0.502441,-0.244141,-0.061035,-0.061035,21.12,0
389715246,21758.568045,1777900590.163802,-273,-1735,-1029,-4,-2,-1,-0.133301,-0.847168,-0.502441,-0.244141,-0.122070,-0.061035,21.26,0
389716256,21758.568055,1777900590.164811,-270,-1734,-1029,-3,-2,0,-0.131836,-0.846680,-0.502441,-0.183105,-0.122070,0.000000,21.07,0
389717270,21758.568064,1777900590.165824,-271,-1733,-1032,-3,-2,-1,-0.132324,-0.846191,-0.503906,-0.183105,-0.122070,-0.061035,21.27,0
389718283,21758.568074,1777900590.166836,-274,-1735,-1030,-3,-2,-2,-0.133789,-0.847168,-0.502930,-0.183105,-0.122070,-0.122070,21.17,1
389719293,21758.576177,1777900590.167851,-272,-1734,-1026,-2,0,-1,-0.132812,-0.846680,-0.500977,-0.122070,0.000000,-0.061035,21.15,0
389720307,21758.576195,1777900590.168864,-269,-1733,-1030,-2,0,-1,-0.131348,-0.846191,-0.502930,-0.122070,0.000000,-0.061035,21.11,0
389721318,21758.576205,1777900590.169875,-272,-1735,-1035,-2,-2,-1,-0.132812,-0.847168,-0.505371,-0.122070,-0.122070,-0.061035,21.14,0
389722330,21758.576215,1777900590.170886,-272,-1735,-1032,-2,-2,-1,-0.132812,-0.847168,-0.503906,-0.122070,-0.122070,-0.061035,21.01,0
389723344,21758.576225,1777900590.171899,-268,-1736,-1032,-2,-1,0,-0.130859,-0.847656,-0.503906,-0.122070,-0.061035,0.000000,21.15,0
389724357,21758.576234,1777900590.172912,-272,-1737,-1035,-3,0,0,-0.132812,-0.848145,-0.505371,-0.183105,0.000000,0.000000,21.14,0
389725368,21758.576244,1777900590.173922,-275,-1735,-1034,-3,-1,0,-0.134277,-0.847168,-0.504883,-0.183105,-0.061035,0.000000,21.12,0
389726380,21758.576253,1777900590.174933,-271,-1733,-1032,-2,-1,-1,-0.132324,-0.846191,-0.503906,-0.122070,-0.061035,-0.061035,21.09,0
389727393,21758.584164,1777900590.175946,-269,-1731,-1030,-2,-1,-1,-0.131348,-0.845215,-0.502930,-0.122070,-0.061035,-0.061035,21.20,0
389728406,21758.584186,1777900590.176958,-271,-1733,-1031,-4,-1,-1,-0.132324,-0.846191,-0.503418,-0.244141,-0.061035,-0.061035,21.07,0
389729417,21758.584196,1777900590.177967,-272,-1736,-1033,-5,0,-1,-0.132812,-0.847656,-0.504395,-0.305176,0.000000,-0.061035,21.07,1
389730428,21758.584206,1777900590.178977,-272,-1735,-1032,-4,0,-1,-0.132812,-0.847168,-0.503906,-0.244141,0.000000,-0.061035,21.07,0
389731442,21758.584216,1777900590.179991,-271,-1731,-1030,-3,-1,0,-0.132324,-0.845215,-0.502930,-0.183105,-0.061035,0.000000,21.12,0
389732453,21758.584226,1777900590.181001,-271,-1730,-1032,-4,-1,0,-0.132324,-0.844727,-0.503906,-0.244141,-0.061035,0.000000,21.07,0
389733466,21758.584235,1777900590.182014,-269,-1735,-1032,-4,-1,-1,-0.131348,-0.847168,-0.503906,-0.244141,-0.061035,-0.061035,21.09,0
389734479,21758.584244,1777900590.183026,-270,-1736,-1034,-3,-1,-2,-0.131836,-0.847656,-0.504883,-0.183105,-0.061035,-0.122070,21.14,0
389735490,21758.592254,1777900590.184036,-271,-1732,-1036,-3,-1,-1,-0.132324,-0.845703,-0.505859,-0.183105,-0.061035,-0.061035,21.24,0
389736502,21758.592274,1777900590.185047,-272,-1733,-1034,-3,-1,-1,-0.132812,-0.846191,-0.504883,-0.183105,-0.061035,-0.061035,21.14,0
389737515,21758.592281,1777900590.186060,-274,-1735,-1030,-3,-1,-1,-0.133789,-0.847168,-0.502930,-0.183105,-0.061035,-0.061035,21.04,0
389738526,21758.592287,1777900590.187070,-275,-1733,-1033,-3,0,-2,-0.134277,-0.846191,-0.504395,-0.183105,0.000000,-0.122070,21.24,0
389739539,21758.592294,1777900590.188082,-271,-1731,-1034,-4,0,-3,-0.132324,-0.845215,-0.504883,-0.244141,0.000000,-0.183105,21.23,0
389740552,21758.592300,1777900590.189095,-267,-1731,-1030,-4,-1,-2,-0.130371,-0.845215,-0.502930,-0.244141,-0.061035,-0.122070,21.15,1
389741566,21758.592307,1777900590.190108,-267,-1733,-1030,-4,-2,-1,-0.130371,-0.846191,-0.502930,-0.244141,-0.122070,-0.061035,21.29,0
389742575,21758.592313,1777900590.191116,-270,-1734,-1031,-3,-1,-2,-0.131836,-0.846680,-0.503418,-0.183105,-0.061035,-0.122070,21.01,0
389743589,21758.600341,1777900590.192129,-273,-1734,-1027,-2,0,-2,-0.133301,-0.846680,-0.501465,-0.122070,0.000000,-0.122070,21.17,0
389744600,21758.600361,1777900590.193140,-270,-1734,-1028,-2,0,-2,-0.131836,-0.846680,-0.501953,-0.122070,0.000000,-0.122070,21.09,0
389745612,21758.600368,1777900590.194151,-268,-1733,-1033,-2,-1,-1,-0.130859,-0.846191,-0.504395,-0.122070,-0.061035,-0.061035,21.17,0
389746626,21758.600374,1777900590.195164,-272,-1733,-1031,-2,-1,-1,-0.132812,-0.846191,-0.503418,-0.122070,-0.061035,-0.061035,21.04,0
389747638,21758.600380,1777900590.196176,-273,-1735,-1028,-3,-1,-1,-0.133301,-0.847168,-0.501953,-0.183105,-0.061035,-0.061035,21.17,0
389748650,21758.600386,1777900590.197187,-269,-1733,-1028,-4,0,-1,-0.131348,-0.846191,-0.501953,-0.244141,0.000000,-0.061035,21.15,0
389749661,21758.600392,1777900590.198197,-270,-1731,-1031,-3,-1,-1,-0.131836,-0.845215,-0.503418,-0.183105,-0.061035,-0.061035,21.07,0
389750674,21758.600398,1777900590.199210,-274,-1735,-1033,-3,-1,-1,-0.133789,-0.847168,-0.504395,-0.183105,-0.061035,-0.061035,21.20,0
389751686,21758.608459,1777900590.200221,-274,-1737,-1032,-3,-1,-1,-0.133789,-0.848145,-0.503906,-0.183105,-0.061035,-0.061035,21.29,1
389752698,21758.608476,1777900590.201233,-273,-1734,-1031,-2,-1,0,-0.133301,-0.846680,-0.503418,-0.122070,-0.061035,0.000000,21.12,0
389753710,21758.608484,1777900590.202244,-272,-1732,-1031,-1,-1,-1,-0.132812,-0.845703,-0.503418,-0.061035,-0.061035,-0.061035,21.11,0
389754724,21758.608490,1777900590.203257,-272,-1734,-1033,-2,-1,-1,-0.132812,-0.846680,-0.504395,-0.122070,-0.061035,-0.061035,21.04,0
389755734,21758.608497,1777900590.204267,-271,-1736,-1035,-3,-1,-1,-0.132324,-0.847656,-0.505371,-0.183105,-0.061035,-0.061035,21.07,0
389756746,21758.608503,1777900590.205278,-271,-1735,-1033,-3,-1,0,-0.132324,-0.847168,-0.504395,-0.183105,-0.061035,0.000000,21.12,0
389757760,21758.608509,1777900590.206291,-273,-1733,-1031,-3,-1,-1,-0.133301,-0.846191,-0.503418,-0.183105,-0.061035,-0.061035,21.09,0
389758771,21758.608515,1777900590.207302,-270,-1731,-1031,-4,-1,-2,-0.131836,-0.845215,-0.503418,-0.244141,-0.061035,-0.122070,21.07,0
389759786,21758.616571,1777900590.208316,-268,-1731,-1030,-3,0,-3,-0.130859,-0.845215,-0.502930,-0.183105,0.000000,-0.183105,21.23,0
389760797,21758.616588,1777900590.209326,-270,-1731,-1028,-3,0,-2,-0.131836,-0.845215,-0.501953,-0.183105,0.000000,-0.122070,21.20,0
389761810,21758.616595,1777900590.210339,-271,-1731,-1028,-3,0,-1,-0.132324,-0.845215,-0.501953,-0.183105,0.000000,-0.061035,21.07,0
389762821,21758.616602,1777900590.211351,-272,-1734,-1032,-3,0,-1,-0.132812,-0.846680,-0.503906,-0.183105,0.000000,-0.061035,21.14,1
389763832,21758.616608,1777900590.212362,-271,-1735,-1035,-3,0,-1,-0.132324,-0.847168,-0.505371,-0.183105,0.000000,-0.061035,21.04,0
389764846,21758.616615,1777900590.213375,-269,-1738,-1036,-1,-1,-1,-0.131348,-0.848633,-0.505859,-0.061035,-0.061035,-0.061035,21.14,0
389765858,21758.616621,1777900590.214386,-273,-1739,-1036,-1,0,-1,-0.133301,-0.849121,-0.505859,-0.061035,0.000000,-0.061035,21.07,0
389766871,21758.616627,1777900590.215399,-276,-1735,-1034,-2,0,0,-0.134766,-0.847168,-0.504883,-0.122070,0.000000,0.000000,21.23,0
389767881,21758.624644,1777900590.216408,-273,-1733,-1034,-2,0,0,-0.133301,-0.846191,-0.504883,-0.122070,0.000000,0.000000,21.15,0
389768895,21758.624686,1777900590.217422,-272,-1736,-1032,-2,-1,-1,-0.132812,-0.847656,-0.503906,-0.122070,-0.061035,-0.061035,21.14,0
389769908,21758.624768,1777900590.218434,-271,-1734,-1029,-2,-1,-1,-0.132324,-0.846680,-0.502441,-0.122070,-0.061035,-0.061035,21.09,0
389770920,21758.624778,1777900590.219445,-269,-1733,-1029,-3,-2,-1,-0.131348,-0.846191,-0.502441,-0.183105,-0.122070,-0.061035,21.17,0
389771933,21758.624788,1777900590.220458,-270,-1737,-1031,-3,-2,-1,-0.131836,-0.848145,-0.503418,-0.183105,-0.122070,-0.061035,21.11,0
389772943,21758.624798,1777900590.221467,-269,-1737,-1030,-4,-2,-1,-0.131348,-0.848145,-0.502930,-0.244141,-0.122070,-0.061035,21.07,0
389773955,21758.624808,1777900590.222478,-269,-1733,-1030,-3,-1,0,-0.131348,-0.846191,-0.502930,-0.183105,-0.061035,0.000000,21.23,1
389774970,21758.624818,1777900590.223493,-273,-1733,-1030,-2,-2,0,-0.133301,-0.846191,-0.502930,-0.122070,-0.122070,0.000000,21.15,0
389775981,21758.632750,1777900590.224501,-274,-1737,-1026,-3,-2,0,-0.133789,-0.848145,-0.500977,-0.183105,-0.122070,0.000000,21.23,0
389776992,21758.632776,1777900590.225511,-272,-1737,-1027,-3,-1,0,-0.132812,-0.848145,-0.501465,-0.183105,-0.061035,0.000000,21.14,0
389778005,21758.632788,1777900590.226523,-269,-1733,-1031,-3,-1,0,-0.131348,-0.846191,-0.503418,-0.183105,-0.061035,0.000000,21.11,0
389779018,21758.632795,1777900590.227536,-266,-1731,-1034,-2,-1,-1,-0.129883,-0.845215,-0.504883,-0.122070,-0.061035,-0.061035,21.14,0
389780028,21758.632804,1777900590.228545,-265,-1736,-1032,-2,-1,-1,-0.129395,-0.847656,-0.503906,-0.122070,-0.061035,-0.061035,21.11,0
389781041,21758.632815,1777900590.229557,-266,-1735,-1029,-2,-2,-1,-0.129883,-0.847168,-0.502441,-0.122070,-0.122070,-0.061035,21.07,0
389782054,21758.632823,1777900590.230570,-269,-1732,-1029,-1,-2,-1,-0.131348,-0.845703,-0.502441,-0.061035,-0.122070,-0.061035,21.14,0
389783067,21758.632833,1777900590.231582,-274,-1734,-1029,-1,-1,0,-0.133789,-0.846680,-0.502441,-0.061035,-0.061035,0.000000,21.20,0
389784080,21758.640869,1777900590.232594,-274,-1734,-1030,-2,-1,0,-0.133789,-0.846680,-0.502930,-0.122070,-0.061035,0.000000,21.07,0
389785097,21758.640901,1777900590.233609,-271,-1735,-1034,-3,-1,0,-0.132324,-0.847168,-0.504883,-0.183105,-0.061035,0.000000,21.15,1
389786103,21758.640912,1777900590.234615,-267,-1733,-1032,-2,-1,-1,-0.130371,-0.846191,-0.503906,-0.122070,-0.061035,-0.061035,21.18,0
389787116,21758.640923,1777900590.235627,-269,-1732,-1031,-2,-1,-1,-0.131348,-0.845703,-0.503418,-0.122070,-0.061035,-0.061035,21.12,0
389788127,21758.640935,1777900590.236638,-274,-1733,-1035,-2,-2,0,-0.133789,-0.846191,-0.505371,-0.122070,-0.122070,0.000000,21.12,0
389789139,21758.640947,1777900590.237649,-271,-1729,-1034,-1,-2,1,-0.132324,-0.844238,-0.504883,-0.061035,-0.122070,0.061035,21.11,0
389790153,21758.640957,1777900590.238662,-268,-1727,-1031,-1,-1,0,-0.130859,-0.843262,-0.503418,-0.061035,-0.061035,0.000000,21.09,0
389791165,21758.640968,1777900590.239673,-268,-1735,-1034,-2,0,0,-0.130859,-0.847168,-0.504883,-0.122070,0.000000,0.000000,21.11,0
389792178,21758.649167,1777900590.240686,-270,-1738,-1035,-3,-1,0,-0.131836,-0.848633,-0.505371,-0.183105,-0.061035,0.000000,21.12,0
389793189,21758.649185,1777900590.241696,-273,-1734,-1031,-2,-2,0,-0.133301,-0.846680,-0.503418,-0.122070,-0.122070,0.000000,21.20,0
389794202,21758.649192,1777900590.242708,-275,-1731,-1028,-2,-2,0,-0.134277,-0.845215,-0.501953,-0.122070,-0.122070,0.000000,21.23,0
389795214,21758.649199,1777900590.243720,-274,-1732,-1030,-3,-2,0,-0.133789,-0.845703,-0.502930,-0.183105,-0.122070,0.000000,21.07,0
389796226,21758.649205,1777900590.244731,-272,-1733,-1031,-3,-1,-1,-0.132812,-0.846191,-0.503418,-0.183105,-0.061035,-0.061035,21.23,1
389797238,21758.649212,1777900590.245742,-270,-1729,-1030,-3,-1,-1,-0.131836,-0.844238,-0.502930,-0.183105,-0.061035,-0.061035,21.07,0
389798251,21758.649219,1777900590.246755,-269,-1729,-1031,-2,-2,-1,-0.131348,-0.844238,-0.503418,-0.122070,-0.122070,-0.061035,21.07,0
389799263,21758.649225,1777900590.247766,-268,-1736,-1030,-3,-2,-2,-0.130859,-0.847656,-0.502930,-0.183105,-0.122070,-0.122070,21.09,0
389800275,21758.657062,1777900590.248780,-268,-1736,-1032,-3,-1,-2,-0.130859,-0.847656,-0.503906,-0.183105,-0.061035,-0.122070,21.21,0
389801288,21758.657082,1777900590.249792,-270,-1733,-1034,-3,-1,-1,-0.131836,-0.846191,-0.504883,-0.183105,-0.061035,-0.061035,21.11,0
389802298,21758.657090,1777900590.250801,-273,-1733,-1030,-3,-2,0,-0.133301,-0.846191,-0.502930,-0.183105,-0.122070,0.000000,21.09,0
389803311,21758.657096,1777900590.251814,-273,-1731,-1030,-3,-2,-1,-0.133301,-0.845215,-0.502930,-0.183105,-0.122070,-0.061035,21.12,0
389804325,21758.657103,1777900590.252827,-271,-1730,-1034,-3,-1,-1,-0.132324,-0.844727,-0.504883,-0.183105,-0.061035,-0.061035,21.23,0
389805337,21758.657119,1777900590.253838,-273,-1734,-1032,-3,0,-1,-0.133301,-0.846680,-0.503906,-0.183105,0.000000,-0.061035,21.23,0
389806351,21758.657126,1777900590.254852,-275,-1738,-1032,-3,-1,-1,-0.134277,-0.848633,-0.503906,-0.183105,-0.061035,-0.061035,21.23,0
389807361,21758.657132,1777900590.255861,-273,-1738,-1033,-3,-1,-1,-0.133301,-0.848633,-0.504395,-0.183105,-0.061035,-0.061035,21.15,1
389808374,21758.665136,1777900590.256872,-270,-1733,-1032,-3,-1,-1,-0.131836,-0.846191,-0.503906,-0.183105,-0.061035,-0.061035,21.26,0
389809386,21758.665148,1777900590.257883,-271,-1731,-1029,-3,0,-1,-0.132324,-0.845215,-0.502441,-0.183105,0.000000,-0.061035,21.14,0
389810398,21758.665155,1777900590.258894,-272,-1734,-1032,-3,0,-2,-0.132812,-0.846680,-0.503906,-0.183105,0.000000,-0.122070,21.29,0
389811408,21758.665162,1777900590.259904,-271,-1733,-1035,-3,-1,-2,-0.132324,-0.846191,-0.505371,-0.183105,-0.061035,-0.122070,21.14,0
389812422,21758.665168,1777900590.260917,-270,-1731,-1031,-2,-2,-1,-0.131836,-0.845215,-0.503418,-0.122070,-0.122070,-0.061035,21.12,0
389813435,21758.665174,1777900590.261929,-269,-1731,-1029,-2,-2,0,-0.131348,-0.845215,-0.502441,-0.122070,-0.122070,0.000000,21.12,0
389814447,21758.665181,1777900590.262941,-270,-1731,-1029,-2,-2,1,-0.131836,-0.845215,-0.502441,-0.122070,-0.122070,0.061035,21.26,0
389815460,21758.665187,1777900590.263953,-273,-1732,-1031,-3,-1,0,-0.133301,-0.845703,-0.503418,-0.183105,-0.061035,0.000000,21.09,0
389816471,21758.673244,1777900590.264963,-274,-1732,-1032,-3,-1,-2,-0.133789,-0.845703,-0.503906,-0.183105,-0.061035,-0.122070,21.09,0
389817484,21758.673265,1777900590.266203,-272,-1732,-1031,-2,-2,-3,-0.132812,-0.845703,-0.503418,-0.122070,-0.122070,-0.183105,21.11,1
389818495,21758.673280,1777900590.267215,-271,-1736,-1032,-3,-2,-2,-0.132324,-0.847656,-0.503906,-0.183105,-0.122070,-0.122070,21.20,0
389819508,21758.673292,1777900590.268230,-272,-1738,-1031,-3,-1,-1,-0.132812,-0.848633,-0.503418,-0.183105,-0.061035,-0.061035,21.30,0
389820521,21758.673304,1777900590.269244,-272,-1738,-1027,-2,-1,-1,-0.132812,-0.848633,-0.501465,-0.122070,-0.061035,-0.061035,21.27,0
389821531,21758.673316,1777900590.270255,-271,-1737,-1026,-3,0,-1,-0.132324,-0.848145,-0.500977,-0.183105,0.000000,-0.061035,21.26,0
389822545,21758.673329,1777900590.271271,-271,-1734,-1031,-4,-1,-1,-0.132324,-0.846680,-0.503418,-0.244141,-0.061035,-0.061035,21.17,0
389823557,21758.673341,1777900590.272284,-269,-1736,-1034,-4,-1,0,-0.131348,-0.847656,-0.504883,-0.244141,-0.061035,0.000000,21.14,0
389824569,21758.681334,1777900590.273297,-270,-1737,-1031,-3,-1,-1,-0.131836,-0.848145,-0.503418,-0.183105,-0.061035,-0.061035,21.12,0
389825580,21758.681348,1777900590.274310,-272,-1734,-1029,-2,0,-2,-0.132812,-0.846680,-0.502441,-0.122070,0.000000,-0.122070,21.29,0
389826594,21758.681355,1777900590.275325,-272,-1730,-1031,-3,-1,-2,-0.132812,-0.844727,-0.503418,-0.183105,-0.061035,-0.122070,21.23,0
389827607,21758.681362,1777900590.276339,-271,-1729,-1028,-3,-2,-1,-0.132324,-0.844238,-0.501953,-0.183105,-0.122070,-0.061035,21.26,0
389828619,21758.681369,1777900590.277353,-271,-1730,-1027,-3,-2,-1,-0.132324,-0.844727,-0.501465,-0.183105,-0.122070,-0.061035,21.36,1
389829630,21758.681375,1777900590.278365,-273,-1733,-1028,-3,-2,-1,-0.133301,-0.846191,-0.501953,-0.183105,-0.122070,-0.061035,21.29,0
389830643,21758.681382,1777900590.279379,-272,-1736,-1031,-3,-2,0,-0.132812,-0.847656,-0.503418,-0.183105,-0.122070,0.000000,21.30,0
389831656,21758.681427,1777900590.280394,-269,-1732,-1031,-3,-1,0,-0.131348,-0.845703,-0.503418,-0.183105,-0.061035,0.000000,21.07,0
389832666,21758.689432,1777900590.281575,-268,-1731,-1027,-3,-1,0,-0.130859,-0.845215,-0.501465,-0.183105,-0.061035,0.000000,21.30,0
389833679,21758.689453,1777900590.282591,-272,-1734,-1030,-3,-1,-1,-0.132812,-0.846680,-0.502930,-0.183105,-0.061035,-0.061035,21.27,0
389834692,21758.689463,1777900590.283606,-274,-1737,-1030,-3,0,-2,-0.133789,-0.848145,-0.502930,-0.183105,0.000000,-0.122070,21.15,0
389835704,21758.689472,1777900590.284621,-271,-1736,-1028,-3,0,-1,-0.132324,-0.847656,-0.501953,-0.183105,0.000000,-0.061035,21.11,0
389836716,21758.689481,1777900590.285636,-270,-1734,-1029,-3,-1,-1,-0.131836,-0.846680,-0.502441,-0.183105,-0.061035,-0.061035,21.15,0
389837727,21758.689490,1777900590.286649,-270,-1732,-1033,-3,-2,0,-0.131836,-0.845703,-0.504395,-0.183105,-0.122070,0.000000,21.12,0
389838742,21758.689498,1777900590.287667,-272,-1732,-1037,-3,-1,-1,-0.132812,-0.845703,-0.506348,-0.183105,-0.061035,-0.061035,21.12,0
389839753,21758.689507,1777900590.288681,-274,-1734,-1035,-3,-1,-1,-0.133789,-0.846680,-0.505371,-0.183105,-0.061035,-0.061035,21.32,1
389840765,21758.697523,1777900590.289810,-272,-1737,-1031,-4,-2,-1,-0.132812,-0.848145,-0.503418,-0.244141,-0.122070,-0.061035,21.04,0
389841777,21758.697541,1777900590.290826,-268,-1736,-1030,-4,-2,-1,-0.130859,-0.847656,-0.502930,-0.244141,-0.122070,-0.061035,21.07,0
389842790,21758.697548,1777900590.291842,-268,-1735,-1032,-3,-1,-1,-0.130859,-0.847168,-0.503906,-0.183105,-0.061035,-0.061035,21.29,0
389843801,21758.697555,1777900590.292857,-273,-1736,-1030,-2,0,0,-0.133301,-0.847656,-0.502930,-0.122070,0.000000,0.000000,21.20,0
389844815,21758.697562,1777900590.293875,-277,-1735,-1028,-3,-1,0,-0.135254,-0.847168,-0.501953,-0.183105,-0.061035,0.000000,21.14,0
389845827,21758.697569,1777900590.294890,-274,-1734,-1030,-4,-2,-1,-0.133789,-0.846680,-0.502930,-0.244141,-0.122070,-0.061035,21.15,0
389846838,21758.697575,1777900590.295905,-272,-1734,-1033,-4,-1,-1,-0.132812,-0.846680,-0.504395,-0.244141,-0.061035,-0.061035,21.12,0
389847851,21758.697582,1777900590.296921,-275,-1733,-1031,-5,-2,-1,-0.134277,-0.846191,-0.503418,-0.305176,-0.122070,-0.061035,21.26,0
389848863,21758.705614,1777900590.297937,-275,-1733,-1029,-5,-2,-2,-0.134277,-0.846191,-0.502441,-0.305176,-0.122070,-0.122070,21.14,0
389849875,21758.705632,1777900590.298953,-270,-1735,-1032,-3,-1,-1,-0.131836,-0.847168,-0.503906,-0.183105,-0.061035,-0.061035,21.00,0
389850889,21758.705639,1777900590.300049,-269,-1734,-1032,-3,-1,-1,-0.131348,-0.846680,-0.503906,-0.183105,-0.061035,-0.061035,21.12,1
389851898,21758.705646,1777900590.301062,-271,-1734,-1028,-3,-1,-1,-0.132324,-0.846680,-0.501953,-0.183105,-0.061035,-0.061035,21.09,0
389852912,21758.705653,1777900590.302080,-273,-1736,-1032,-3,-1,-2,-0.133301,-0.847656,-0.503906,-0.183105,-0.061035,-0.122070,21.07,0
389853923,21758.705659,1777900590.303096,-272,-1734,-1036,-3,-1,-2,-0.132812,-0.846680,-0.505859,-0.183105,-0.061035,-0.122070,21.29,0
389854936,21758.705666,1777900590.304113,-272,-1732,-1033,-3,-1,-1,-0.132812,-0.845703,-0.504395,-0.183105,-0.061035,-0.061035,21.18,0
389855950,21758.705672,1777900590.305131,-274,-1733,-1030,-3,-2,-1,-0.133789,-0.846191,-0.502930,-0.183105,-0.122070,-0.061035,21.06,0
389856960,21758.713738,1777900590.306145,-275,-1732,-1030,-3,-3,-2,-0.134277,-0.845703,-0.502930,-0.183105,-0.183105,-0.122070,21.24,0
389857974,21758.713758,1777900590.307163,-275,-1732,-1029,-3,-2,-1,-0.134277,-0.845703,-0.502441,-0.183105,-0.122070,-0.061035,21.11,0
389858986,21758.713767,1777900590.308179,-272,-1735,-1031,-4,0,0,-0.132812,-0.847168,-0.503418,-0.244141,0.000000,0.000000,21.09,0
389859999,21758.713776,1777900590.309197,-271,-1737,-1034,-3,0,-1,-0.132324,-0.848145,-0.504883,-0.183105,0.000000,-0.061035,21.18,0
389861010,21758.713784,1777900590.310212,-273,-1736,-1034,-3,-2,-1,-0.133301,-0.847656,-0.504883,-0.183105,-0.122070,-0.061035,21.09,0
389862023,21758.713797,1777900590.311229,-274,-1738,-1031,-4,-2,0,-0.133789,-0.848633,-0.503418,-0.244141,-0.122070,0.000000,21.07,1
389863034,21758.713809,1777900590.312244,-270,-1739,-1030,-3,-1,-1,-0.131836,-0.849121,-0.502930,-0.183105,-0.061035,-0.061035,21.07,0
389864048,21758.713818,1777900590.313262,-269,-1740,-1033,-2,0,-1,-0.131348,-0.849609,-0.504395,-0.122070,0.000000,-0.061035,21.26,0
389865060,21758.721803,1777900590.314328,-271,-1740,-1036,-2,-1,0,-0.132324,-0.849609,-0.505859,-0.122070,-0.061035,0.000000,21.12,0
389866072,21758.721815,1777900590.315345,-271,-1737,-1031,-2,-2,0,-0.132324,-0.848145,-0.503418,-0.122070,-0.122070,0.000000,21.14,0
389867100,21758.721822,1777900590.316377,-270,-1736,-1029,-3,-2,-1,-0.131836,-0.847656,-0.502441,-0.183105,-0.122070,-0.061035,21.07,0
389868099,21758.721829,1777900590.317381,-272,-1735,-1032,-3,-2,-1,-0.132812,-0.847168,-0.503906,-0.183105,-0.122070,-0.061035,21.12,0
389869109,21758.721835,1777900590.318395,-271,-1734,-1029,-3,-1,-1,-0.132324,-0.846680,-0.502441,-0.183105,-0.061035,-0.061035,21.11,0
389870121,21758.721842,1777900590.319412,-269,-1732,-1028,-4,-1,0,-0.131348,-0.845703,-0.501953,-0.244141,-0.061035,0.000000,21.07,0
389871133,21758.721848,1777900590.320428,-271,-1732,-1030,-3,-1,-1,-0.132324,-0.845703,-0.502930,-0.183105,-0.061035,-0.061035,21.14,0
389872146,21758.721854,1777900590.321446,-273,-1735,-1030,-2,-1,-1,-0.133301,-0.847168,-0.502930,-0.122070,-0.061035,-0.061035,21.21,0
389873156,21758.730045,1777900590.322490,-270,-1736,-1030,-2,-1,0,-0.131836,-0.847656,-0.502930,-0.122070,-0.061035,0.000000,21.18,1
389874168,21758.730063,1777900590.323507,-269,-1735,-1030,-3,-2,-1,-0.131348,-0.847168,-0.502930,-0.183105,-0.122070,-0.061035,21.35,0
389875183,21758.730073,1777900590.324526,-271,-1734,-1034,-3,-2,-1,-0.132324,-0.846680,-0.504883,-0.183105,-0.122070,-0.061035,21.14,0
389876195,21758.730083,1777900590.325543,-273,-1731,-1036,-4,-1,0,-0.133301,-0.845215,-0.505859,-0.244141,-0.061035,0.000000,21.04,0
389877205,21758.730093,1777900590.326558,-273,-1731,-1034,-3,-1,0,-0.133301,-0.845215,-0.504883,-0.183105,-0.061035,0.000000,21.15,0
389878219,21758.730102,1777900590.327577,-270,-1733,-1028,-3,-2,0,-0.131836,-0.846191,-0.501953,-0.183105,-0.122070,0.000000,21.07,0
389879229,21758.730112,1777900590.328591,-270,-1734,-1025,-2,-1,0,-0.131836,-0.846680,-0.500488,-0.122070,-0.061035,0.000000,21.17,0
389880243,21758.730121,1777900590.329610,-270,-1734,-1028,-3,-1,0,-0.131836,-0.846680,-0.501953,-0.183105,-0.061035,0.000000,21.11,0
389881255,21758.737998,1777900590.330627,-272,-1732,-1034,-3,-1,0,-0.132812,-0.845703,-0.504883,-0.183105,-0.061035,0.000000,21.12,0
389882266,21758.738017,1777900590.331642,-272,-1734,-1035,-2,-1,0,-0.132812,-0.846680,-0.505371,-0.122070,-0.061035,0.000000,21.14,0
389883281,21758.738024,1777900590.332662,-271,-1736,-1029,-2,0,-1,-0.132324,-0.847656,-0.502441,-0.122070,0.000000,-0.061035,21.17,0
389884293,21758.738031,1777900590.333691,-271,-1734,-1027,-2,0,0,-0.132324,-0.846680,-0.501465,-0.122070,0.000000,0.000000,21.14,1
389885304,21758.738037,1777900590.334707,-272,-1734,-1033,-2,-1,0,-0.132812,-0.846680,-0.504395,-0.122070,-0.061035,0.000000,21.18,0
389886318,21758.738044,1777900590.335726,-272,-1735,-1035,-2,-1,-1,-0.132812,-0.847168,-0.505371,-0.122070,-0.061035,-0.061035,21.15,0
389887329,21758.738050,1777900590.336741,-269,-1734,-1035,-3,-1,-1,-0.131348,-0.846680,-0.505371,-0.183105,-0.061035,-0.061035,21.20,0
389888341,21758.738056,1777900590.337758,-266,-1731,-1034,-3,-1,-1,-0.129883,-0.845215,-0.504883,-0.183105,-0.061035,-0.061035,21.15,0
389889352,21758.746127,1777900590.338774,-269,-1731,-1030,-3,-2,-1,-0.131348,-0.845215,-0.502930,-0.183105,-0.122070,-0.061035,21.11,0
389890366,21758.746138,1777900590.339793,-272,-1734,-1032,-3,-2,0,-0.132812,-0.846680,-0.503906,-0.183105,-0.122070,0.000000,21.12,0
389891379,21758.746145,1777900590.340811,-269,-1735,-1038,-3,-1,0,-0.131348,-0.847168,-0.506836,-0.183105,-0.061035,0.000000,21.30,0
389892389,21758.746151,1777900590.341825,-269,-1732,-1035,-2,-1,0,-0.131348,-0.845703,-0.505371,-0.122070,-0.061035,0.000000,21.14,0
389893401,21758.746192,1777900590.342842,-277,-1732,-1029,-3,-3,-1,-0.135254,-0.845703,-0.502441,-0.183105,-0.183105,-0.061035,21.20,0
389894414,21758.746198,1777900590.343860,-276,-1737,-1031,-3,-2,-1,-0.134766,-0.848145,-0.503418,-0.183105,-0.122070,-0.061035,21.29,0
389895426,21758.746204,1777900590.344877,-272,-1739,-1030,-2,0,0,-0.132812,-0.849121,-0.502930,-0.122070,0.000000,0.000000,21.09,1
389896440,21758.746211,1777900590.345896,-270,-1735,-1028,-1,-1,0,-0.131836,-0.847168,-0.501953,-0.061035,-0.061035,0.000000,21.14,0
389897452,21758.754217,1777900590.346915,-270,-1731,-1029,-2,-2,-1,-0.131836,-0.845215,-0.502441,-0.122070,-0.122070,-0.061035,21.21,0
389898464,21758.754236,1777900590.347932,-273,-1731,-1030,-2,-2,-2,-0.133301,-0.845215,-0.502930,-0.122070,-0.122070,-0.122070,21.11,0
389899477,21758.754245,1777900590.348949,-274,-1732,-1032,-3,-1,-1,-0.133789,-0.845703,-0.503906,-0.183105,-0.061035,-0.061035,21.20,0
389900488,21758.754254,1777900590.349965,-273,-1734,-1029,-4,-1,0,-0.133301,-0.846680,-0.502441,-0.244141,-0.061035,0.000000,21.11,0
389901500,21758.754262,1777900590.350982,-272,-1733,-1028,-3,-1,-1,-0.132812,-0.846191,-0.501953,-0.183105,-0.061035,-0.061035,21.17,0
389902513,21758.754270,1777900590.352000,-270,-1731,-1031,-3,-1,-2,-0.131836,-0.845215,-0.503418,-0.183105,-0.061035,-0.122070,21.07,0
389903524,21758.754279,1777900590.353016,-270,-1733,-1030,-3,-2,-1,-0.131836,-0.846191,-0.502930,-0.183105,-0.122070,-0.061035,21.15,0
389904537,21758.754287,1777900590.354033,-271,-1733,-1031,-3,-2,-1,-0.132324,-0.846191,-0.503418,-0.183105,-0.122070,-0.061035,20.98,0
389905550,21758.762308,1777900590.355051,-269,-1732,-1033,-2,-1,-1,-0.131348,-0.845703,-0.504395,-0.122070,-0.061035,-0.061035,21.07,0
389906561,21758.762336,1777900590.356057,-267,-1733,-1034,-2,-1,-1,-0.130371,-0.846191,-0.504883,-0.122070,-0.061035,-0.061035,21.11,1
389907573,21758.762347,1777900590.357073,-270,-1733,-1036,-3,-2,-1,-0.131836,-0.846191,-0.505859,-0.183105,-0.122070,-0.061035,21.04,0
389908587,21758.762357,1777900590.358092,-273,-1735,-1036,-3,-2,0,-0.133301,-0.847168,-0.505859,-0.183105,-0.122070,0.000000,21.20,0
389909599,21758.762367,1777900590.359109,-269,-1736,-1033,-2,-2,0,-0.131348,-0.847656,-0.504395,-0.122070,-0.122070,0.000000,21.20,0
389910611,21758.762377,1777900590.360126,-267,-1736,-1030,-3,-1,-1,-0.130371,-0.847656,-0.502930,-0.183105,-0.061035,-0.061035,21.09,0
389911624,21758.762387,1777900590.361143,-269,-1736,-1029,-3,-1,-2,-0.131348,-0.847656,-0.502441,-0.183105,-0.061035,-0.122070,21.14,0
389912636,21758.762396,1777900590.362160,-270,-1736,-1030,-4,-1,-2,-0.131836,-0.847656,-0.502930,-0.244141,-0.061035,-0.122070,21.20,0
389913647,21758.770407,1777900590.363176,-272,-1733,-1029,-3,-1,-1,-0.132812,-0.846191,-0.502441,-0.183105,-0.061035,-0.061035,21.11,0
389914661,21758.770428,1777900590.364195,-273,-1730,-1030,-2,-2,-1,-0.133301,-0.844727,-0.502930,-0.122070,-0.122070,-0.061035,21.23,0
389915672,21758.770443,1777900590.365211,-270,-1733,-1033,-1,-1,-1,-0.131836,-0.846191,-0.504395,-0.061035,-0.061035,-0.061035,21.18,0
389916684,21758.770455,1777900590.366227,-268,-1736,-1031,-2,-1,-2,-0.130859,-0.847656,-0.503418,-0.122070,-0.061035,-0.122070,21.15,0
389917697,21758.770476,1777900590.367245,-270,-1734,-1029,-4,-1,-1,-0.131836,-0.846680,-0.502441,-0.244141,-0.061035,-0.061035,21.04,1
389918709,21758.770488,1777900590.368262,-272,-1729,-1031,-4,-2,0,-0.132812,-0.844238,-0.503418,-0.244141,-0.122070,0.000000,21.24,0
389919721,21758.770498,1777900590.369278,-273,-1732,-1030,-3,-1,-1,-0.133301,-0.845703,-0.502930,-0.183105,-0.061035,-0.061035,21.12,0
389920732,21758.770507,1777900590.370294,-273,-1737,-1029,-3,0,-1,-0.133301,-0.848145,-0.502441,-0.183105,0.000000,-0.061035,21.04,0
389921747,21758.778509,1777900590.371296,-272,-1735,-1030,-3,0,-1,-0.132812,-0.847168,-0.502930,-0.183105,0.000000,-0.061035,21.14,0
389922758,21758.778523,1777900590.372312,-270,-1732,-1030,-3,0,-1,-0.131836,-0.845703,-0.502930,-0.183105,0.000000,-0.061035,21.15,0
389923769,21758.778530,1777900590.373327,-271,-1734,-1031,-4,-1,-1,-0.132324,-0.846680,-0.503418,-0.244141,-0.061035,-0.061035,21.14,0
389924782,21758.778536,1777900590.374345,-273,-1734,-1031,-3,-2,-1,-0.133301,-0.846680,-0.503418,-0.183105,-0.122070,-0.061035,21.14,0
389925795,21758.778543,1777900590.375363,-275,-1733,-1031,-3,-1,-1,-0.134277,-0.846191,-0.503418,-0.183105,-0.061035,-0.061035,21.18,0
389926807,21758.778549,1777900590.376379,-272,-1732,-1031,-3,-1,-1,-0.132812,-0.845703,-0.503418,-0.183105,-0.061035,-0.061035,21.17,0
389927819,21758.778555,1777900590.377396,-267,-1735,-1028,-3,-1,-1,-0.130371,-0.847168,-0.501953,-0.183105,-0.061035,-0.061035,21.23,0
389928830,21758.778562,1777900590.378412,-270,-1738,-1027,-3,-1,-1,-0.131836,-0.848633,-0.501465,-0.183105,-0.061035,-0.061035,21.15,1
389929842,21758.786608,1777900590.379407,-273,-1736,-1030,-3,-1,-1,-0.133301,-0.847656,-0.502930,-0.183105,-0.061035,-0.061035,21.07,0
389930855,21758.786628,1777900590.380425,-272,-1733,-1033,-3,-2,0,-0.132812,-0.846191,-0.504395,-0.183105,-0.122070,0.000000,21.14,0
389931867,21758.786639,1777900590.381441,-271,-1734,-1034,-3,-1,0,-0.132324,-0.846680,-0.504883,-0.183105,-0.061035,0.000000,21.12,0
389932879,21758.786649,1777900590.382458,-273,-1736,-1034,-2,0,0,-0.133301,-0.847656,-0.504883,-0.122070,0.000000,0.000000,21.20,0
389933893,21758.786658,1777900590.383476,-271,-1733,-1031,-2,-1,0,-0.132324,-0.846191,-0.503418,-0.122070,-0.061035,0.000000,21.18,0
389934904,21758.786668,1777900590.384492,-271,-1732,-1028,-3,-1,0,-0.132324,-0.845703,-0.501953,-0.183105,-0.061035,0.000000,21.26,0
389935918,21758.786677,1777900590.385510,-271,-1733,-1029,-3,-1,-1,-0.132324,-0.846191,-0.502441,-0.183105,-0.061035,-0.061035,21.20,0
389936930,21758.786690,1777900590.386527,-267,-1732,-1033,-2,-1,-1,-0.130371,-0.845703,-0.504395,-0.122070,-0.061035,-0.061035,21.11,0
389937942,21758.794724,1777900590.387543,-268,-1735,-1030,-2,-1,-1,-0.130859,-0.847168,-0.502930,-0.122070,-0.061035,-0.061035,21.07,0
389938952,21758.794748,1777900590.388558,-272,-1735,-1026,-3,-1,0,-0.132812,-0.847168,-0.500977,-0.183105,-0.061035,0.000000,21.20,0
389939966,21758.794757,1777900590.389550,-270,-1733,-1030,-3,-1,0,-0.131836,-0.846191,-0.502930,-0.183105,-0.061035,0.000000,21.09,1
389940980,21758.794766,1777900590.390568,-268,-1735,-1031,-3,-2,-1,-0.130859,-0.847168,-0.503418,-0.183105,-0.122070,-0.061035,21.11,0
389941990,21758.794774,1777900590.391582,-269,-1738,-1029,-3,-1,-2,-0.131348,-0.848633,-0.502441,-0.183105,-0.061035,-0.122070,21.11,0
389943004,21758.794782,1777900590.392601,-270,-1738,-1028,-2,0,-1,-0.131836,-0.848633,-0.501953,-0.122070,0.000000,-0.061035,21.07,0
389944016,21758.794790,1777900590.393617,-270,-1735,-1028,-2,-1,-1,-0.131836,-0.847168,-0.501953,-0.122070,-0.061035,-0.061035,21.26,0
389945027,21758.794798,1777900590.394633,-267,-1733,-1033,-3,-1,-1,-0.130371,-0.846191,-0.504395,-0.183105,-0.061035,-0.061035,21.11,0
389946041,21758.802819,1777900590.395651,-266,-1734,-1037,-4,-1,-1,-0.129883,-0.846680,-0.506348,-0.244141,-0.061035,-0.061035,21.06,0
389947052,21758.802844,1777900590.396667,-270,-1735,-1035,-3,-1,-1,-0.131836,-0.847168,-0.505371,-0.183105,-0.061035,-0.061035,21.07,0
389948064,21758.802854,1777900590.397683,-273,-1733,-1032,-2,-1,-1,-0.133301,-0.846191,-0.503906,-0.122070,-0.061035,-0.061035,21.07,0
389949076,21758.802862,1777900590.398699,-274,-1731,-1033,-2,-1,0,-0.133789,-0.845215,-0.504395,-0.122070,-0.061035,0.000000,21.33,0
389950098,21758.802871,1777900590.399726,-270,-1729,-1032,-3,-1,0,-0.131836,-0.844238,-0.503906,-0.183105,-0.061035,0.000000,21.17,0
389951100,21758.802879,1777900590.400732,-267,-1731,-1032,-4,-1,0,-0.130371,-0.845215,-0.503906,-0.244141,-0.061035,0.000000,21.14,1
389952112,21758.802888,1777900590.401749,-269,-1732,-1032,-3,-2,-1,-0.131348,-0.845703,-0.503906,-0.183105,-0.122070,-0.061035,21.35,0
389953124,21758.802896,1777900590.402765,-272,-1732,-1031,-3,-2,-1,-0.132812,-0.845703,-0.503418,-0.183105,-0.122070,-0.061035,21.32,0
389954139,21758.810885,1777900590.403755,-271,-1735,-1032,-4,-2,0,-0.132324,-0.847168,-0.503906,-0.244141,-0.122070,0.000000,21.07,0
389955149,21758.810932,1777900590.404769,-266,-1738,-1034,-4,-1,-1,-0.129883,-0.848633,-0.504883,-0.244141,-0.061035,-0.061035,21.27,0
389956163,21758.810939,1777900590.405787,-263,-1736,-1033,-3,0,-2,-0.128418,-0.847656,-0.504395,-0.183105,0.000000,-0.122070,21.26,0
389957175,21758.810946,1777900590.406804,-265,-1733,-1032,-3,-1,-2,-0.129395,-0.846191,-0.503906,-0.183105,-0.061035,-0.122070,21.07,0
389958187,21758.810952,1777900590.407820,-268,-1732,-1034,-3,-2,-1,-0.130859,-0.845703,-0.504883,-0.183105,-0.122070,-0.061035,21.09,0
389959198,21758.810959,1777900590.408835,-269,-1736,-1036,-3,-1,-1,-0.131348,-0.847656,-0.505859,-0.183105,-0.061035,-0.061035,21.17,0
389960210,21758.810965,1777900590.409852,-270,-1736,-1033,-3,-1,-1,-0.131836,-0.847656,-0.504395,-0.183105,-0.061035,-0.061035,21.07,0
389961223,21758.810971,1777900590.410869,-271,-1731,-1031,-3,-1,-1,-0.132324,-0.845215,-0.503418,-0.183105,-0.061035,-0.061035,21.26,0
389962235,21758.819006,1777900590.411853,-268,-1731,-1034,-2,-1,-1,-0.130859,-0.845215,-0.504883,-0.122070,-0.061035,-0.061035,21.17,1
389963248,21758.819024,1777900590.412870,-266,-1734,-1033,-3,-1,0,-0.129883,-0.846680,-0.504395,-0.183105,-0.061035,0.000000,21.27,0
389964259,21758.819034,1777900590.413886,-270,-1735,-1032,-4,-1,1,-0.131836,-0.847168,-0.503906,-0.244141,-0.061035,0.061035,21.12,0
389965273,21758.819044,1777900590.414904,-275,-1737,-1034,-4,-2,0,-0.134277,-0.848145,-0.504883,-0.244141,-0.122070,0.000000,21.14,0
389966285,21758.819054,1777900590.415920,-274,-1736,-1033,-3,-2,-1,-0.133789,-0.847656,-0.504395,-0.183105,-0.122070,-0.061035,21.12,0
389967298,21758.819064,1777900590.416937,-274,-1734,-1031,-2,-2,-1,-0.133789,-0.846680,-0.503418,-0.122070,-0.122070,-0.061035,21.11,0
389968309,21758.819073,1777900590.417952,-272,-1737,-1028,-3,-2,0,-0.132812,-0.848145,-0.501953,-0.183105,-0.122070,0.000000,21.18,0
389969321,21758.819083,1777900590.418968,-271,-1737,-1029,-3,-2,0,-0.132324,-0.848145,-0.502441,-0.183105,-0.122070,0.000000,21.04,0
389970335,21758.827080,1777900590.419986,-273,-1736,-1034,-3,-1,0,-0.133301,-0.847656,-0.504883,-0.183105,-0.061035,0.000000,21.21,0
389971347,21758.827112,1777900590.421002,-274,-1737,-1037,-3,0,0,-0.133789,-0.848145,-0.506348,-0.183105,0.000000,0.000000,21.14,0
389972360,21758.827119,1777900590.422019,-273,-1733,-1035,-4,0,1,-0.133301,-0.846191,-0.505371,-0.244141,0.000000,0.061035,21.11,0
389973369,21758.827126,1777900590.423001,-273,-1728,-1034,-3,-1,0,-0.133301,-0.843750,-0.504883,-0.183105,-0.061035,0.000000,21.11,1
389974384,21758.827133,1777900590.424020,-273,-1730,-1033,-2,-1,-1,-0.133301,-0.844727,-0.504395,-0.122070,-0.061035,-0.061035,21.20,0
389975395,21758.827140,1777900590.425035,-272,-1734,-1033,-3,-2,0,-0.132812,-0.846680,-0.504395,-0.183105,-0.122070,0.000000,21.01,0
389976407,21758.827147,1777900590.426051,-270,-1736,-1033,-2,-1,1,-0.131836,-0.847656,-0.504395,-0.122070,-0.061035,0.061035,21.17,0
389977419,21758.827154,1777900590.427067,-269,-1736,-1030,-2,0,-1,-0.131348,-0.847656,-0.502930,-0.122070,0.000000,-0.061035,21.07,0
389978430,21758.835185,1777900590.428082,-269,-1734,-1029,-2,0,-1,-0.131348,-0.846680,-0.502441,-0.122070,0.000000,-0.061035,21.14,0
389979443,21758.835201,1777900590.429098,-270,-1736,-1032,-3,-1,-1,-0.131836,-0.847656,-0.503906,-0.183105,-0.061035,-0.061035,21.09,0
389980456,21758.835208,1777900590.430115,-268,-1737,-1032,-4,-2,-1,-0.130859,-0.848145,-0.503906,-0.244141,-0.122070,-0.061035,21.07,0
389981469,21758.835214,1777900590.431132,-269,-1735,-1033,-3,-1,-1,-0.131348,-0.847168,-0.504395,-0.183105,-0.061035,-0.061035,21.07,0
389982481,21758.835221,1777900590.432148,-270,-1735,-1034,-2,0,-1,-0.131836,-0.847168,-0.504883,-0.122070,0.000000,-0.061035,21.26,0
389983493,21758.835227,1777900590.433164,-270,-1735,-1033,-2,0,0,-0.131836,-0.847168,-0.504395,-0.122070,0.000000,0.000000,21.18,0
389984504,21758.835233,1777900590.434179,-270,-1731,-1032,-3,-1,0,-0.131836,-0.845215,-0.503906,-0.183105,-0.061035,0.000000,21.11,1
389985516,21758.835240,1777900590.435195,-268,-1731,-1033,-3,-2,-1,-0.130859,-0.845215,-0.504395,-0.183105,-0.122070,-0.061035,21.09,0
389986530,21758.843277,1777900590.436177,-268,-1734,-1034,-3,-2,-1,-0.130859,-0.846680,-0.504883,-0.183105,-0.122070,-0.061035,21.04,0
389987543,21758.843303,1777900590.437194,-271,-1735,-1034,-2,-1,0,-0.132324,-0.847168,-0.504883,-0.122070,-0.061035,0.000000,21.06,0
389988555,21758.843314,1777900590.438210,-274,-1733,-1031,-2,-1,0,-0.133789,-0.846191,-0.503418,-0.122070,-0.061035,0.000000,21.18,0
389989565,21758.843324,1777900590.439224,-273,-1731,-1030,-4,-1,-1,-0.133301,-0.845215,-0.502930,-0.244141,-0.061035,-0.061035,21.12,0
389990580,21758.843335,1777900590.440243,-270,-1731,-1035,-3,-2,0,-0.131836,-0.845215,-0.505371,-0.183105,-0.122070,0.000000,21.04,0
389991591,21758.843345,1777900590.441257,-270,-1732,-1033,-2,-2,-1,-0.131836,-0.845703,-0.504395,-0.122070,-0.122070,-0.061035,21.15,0
389992604,21758.843355,1777900590.442274,-271,-1732,-1031,-2,-1,-1,-0.132324,-0.845703,-0.503418,-0.122070,-0.061035,-0.061035,21.12,0
389993616,21758.843366,1777900590.443290,-273,-1734,-1033,-4,-1,0,-0.133301,-0.846680,-0.504395,-0.244141,-0.061035,0.000000,21.11,0
389994628,21758.851507,1777900590.444306,-270,-1734,-1031,-4,-1,0,-0.131836,-0.846680,-0.503418,-0.244141,-0.061035,0.000000,21.18,0
389995639,21758.851526,1777900590.445286,-269,-1733,-1029,-2,-1,-1,-0.131348,-0.846191,-0.502441,-0.122070,-0.061035,-0.061035,21.17,1
389996651,21758.851539,1777900590.446302,-271,-1733,-1033,-2,-1,-2,-0.132324,-0.846191,-0.504395,-0.122070,-0.061035,-0.122070,21.06,0
389997665,21758.851549,1777900590.447319,-271,-1734,-1034,-3,-1,-1,-0.132324,-0.846680,-0.504883,-0.183105,-0.061035,-0.061035,21.14,0
389998677,21758.851559,1777900590.448335,-272,-1733,-1032,-3,-1,-1,-0.132812,-0.846191,-0.503906,-0.183105,-0.061035,-0.061035,21.14,0
389999690,21758.851569,1777900590.449352,-272,-1731,-1032,-3,-1,-1,-0.132812,-0.845215,-0.503906,-0.183105,-0.061035,-0.061035,21.11,0
390000700,21758.851579,1777900590.450365,-270,-1731,-1033,-2,-1,-1,-0.131836,-0.845215,-0.504395,-0.122070,-0.061035,-0.061035,21.07,0
390001714,21758.851589,1777900590.451383,-270,-1735,-1032,-3,-1,-1,-0.131836,-0.847168,-0.503906,-0.183105,-0.061035,-0.061035,21.14,0
390002725,21758.859469,1777900590.452398,-271,-1735,-1030,-2,-1,-1,-0.132324,-0.847168,-0.502930,-0.122070,-0.061035,-0.061035,21.29,0
390003739,21758.859489,1777900590.453415,-274,-1734,-1032,-1,-2,-1,-0.133789,-0.846680,-0.503906,-0.061035,-0.122070,-0.061035,20.98,0
390004749,21758.859500,1777900590.454429,-275,-1736,-1033,-3,-2,-1,-0.134277,-0.847656,-0.504395,-0.183105,-0.122070,-0.061035,21.07,0
390005763,21758.859511,1777900590.455446,-273,-1737,-1031,-2,-1,0,-0.133301,-0.848145,-0.503418,-0.122070,-0.061035,0.000000,21.18,0
390006775,21758.859523,1777900590.456462,-271,-1734,-1031,-1,-1,-1,-0.132324,-0.846680,-0.503418,-0.061035,-0.061035,-0.061035,21.18,1
390007788,21758.859536,1777900590.457479,-273,-1735,-1031,-2,-2,-1,-0.133301,-0.847168,-0.503418,-0.122070,-0.122070,-0.061035,21.26,0
390008800,21758.859548,1777900590.458494,-272,-1736,-1030,-4,-2,-1,-0.132812,-0.847656,-0.502930,-0.244141,-0.122070,-0.061035,21.20,0
390009812,21758.859558,1777900590.459510,-269,-1733,-1032,-3,-1,0,-0.131348,-0.846191,-0.503906,-0.183105,-0.061035,0.000000,21.09,0
390010825,21758.867652,1777900590.460491,-269,-1732,-1034,-2,0,-1,-0.131348,-0.845703,-0.504883,-0.122070,0.000000,-0.061035,21.09,0
390011837,21758.867664,1777900590.461506,-273,-1735,-1034,-2,0,-1,-0.133301,-0.847168,-0.504883,-0.122070,0.000000,-0.061035,21.11,0
390012848,21758.867670,1777900590.462521,-274,-1734,-1032,-3,0,-1,-0.133789,-0.846680,-0.503906,-0.183105,0.000000,-0.061035,21.17,0
390013860,21758.867677,1777900590.463537,-269,-1734,-1032,-3,0,-1,-0.131348,-0.846680,-0.503906,-0.183105,0.000000,-0.061035,21.17,0
390014874,21758.867684,1777900590.464554,-268,-1735,-1033,-3,-1,-1,-0.130859,-0.847168,-0.504395,-0.183105,-0.061035,-0.061035,21.18,0
390015884,21758.867690,1777900590.465567,-269,-1735,-1033,-3,-1,-1,-0.131348,-0.847168,-0.504395,-0.183105,-0.061035,-0.061035,21.29,0
390016898,21758.867728,1777900590.466585,-268,-1733,-1033,-3,-1,-1,-0.130859,-0.846191,-0.504395,-0.183105,-0.061035,-0.061035,21.04,0
390017910,21758.867735,1777900590.467600,-270,-1732,-1032,-4,-1,-1,-0.131836,-0.845703,-0.503906,-0.244141,-0.061035,-0.061035,21.11,1
390018921,21758.875691,1777900590.468579,-272,-1734,-1034,-3,-1,-1,-0.132812,-0.846680,-0.504883,-0.183105,-0.061035,-0.061035,21.09,0
390019933,21758.875705,1777900590.469594,-271,-1734,-1033,-2,-1,-1,-0.132324,-0.846680,-0.504395,-0.122070,-0.061035,-0.061035,21.23,0
390020946,21758.875712,1777900590.470610,-269,-1733,-1028,-3,-1,-1,-0.131348,-0.846191,-0.501953,-0.183105,-0.061035,-0.061035,21.29,0
390021960,21758.875718,1777900590.471628,-270,-1737,-1023,-4,-1,-1,-0.131836,-0.848145,-0.499512,-0.244141,-0.061035,-0.061035,21.11,0
390022971,21758.875725,1777900590.472642,-271,-1738,-1027,-3,-2,-1,-0.132324,-0.848633,-0.501465,-0.183105,-0.122070,-0.061035,21.14,0
390023982,21758.875751,1777900590.473656,-268,-1734,-1031,-2,-1,-1,-0.130859,-0.846680,-0.503418,-0.122070,-0.061035,-0.061035,21.15,0
390024997,21758.875758,1777900590.474675,-267,-1732,-1031,-2,-1,-1,-0.130371,-0.845703,-0.503418,-0.122070,-0.061035,-0.061035,21.26,0
390026008,21758.875765,1777900590.475689,-272,-1734,-1032,-3,-1,-1,-0.132812,-0.846680,-0.503906,-0.183105,-0.061035,-0.061035,21.15,0
390027021,21758.886527,1777900590.476706,-272,-1736,-1033,-3,-1,0,-0.132812,-0.847656,-0.504395,-0.183105,-0.061035,0.000000,21.15,0
390028032,21758.886548,1777900590.477720,-270,-1738,-1033,-3,-1,0,-0.131836,-0.848633,-0.504395,-0.183105,-0.061035,0.000000,21.15,0
390029046,21758.886559,1777900590.478702,-274,-1737,-1030,-3,-1,-1,-0.133789,-0.848145,-0.502930,-0.183105,-0.061035,-0.061035,21.01,1
390030057,21758.886570,1777900590.479716,-274,-1735,-1028,-3,-1,-1,-0.133789,-0.847168,-0.501953,-0.183105,-0.061035,-0.061035,21.11,0
390031070,21758.886580,1777900590.480732,-270,-1735,-1030,-3,-1,-1,-0.131836,-0.847168,-0.502930,-0.183105,-0.061035,-0.061035,21.20,0
390032083,21758.886590,1777900590.481748,-269,-1733,-1032,-2,0,-1,-0.131348,-0.846191,-0.503906,-0.122070,0.000000,-0.061035,21.11,0
390033100,21758.886600,1777900590.482769,-273,-1733,-1033,-3,-1,0,-0.133301,-0.846191,-0.504395,-0.183105,-0.061035,0.000000,21.26,0
390034107,21758.886611,1777900590.483779,-274,-1732,-1032,-3,-1,0,-0.133789,-0.845703,-0.503906,-0.183105,-0.061035,0.000000,21.07,0
390035118,21758.891857,1777900590.484793,-269,-1732,-1028,-2,0,-1,-0.131348,-0.845703,-0.501953,-0.122070,0.000000,-0.061035,21.24,0
390036129,21758.891871,1777900590.485807,-267,-1735,-1026,-3,-1,-1,-0.130371,-0.847168,-0.500977,-0.183105,-0.061035,-0.061035,21.17,0
390037142,21758.891878,1777900590.486823,-269,-1736,-1030,-3,-2,-1,-0.131348,-0.847656,-0.502930,-0.183105,-0.122070,-0.061035,21.11,0
390038156,21758.891885,1777900590.487841,-272,-1734,-1036,-3,-2,-1,-0.132812,-0.846680,-0.505859,-0.183105,-0.122070,-0.061035,21.01,0
390039167,21758.891891,1777900590.488855,-274,-1736,-1038,-3,-1,-1,-0.133789,-0.847656,-0.506836,-0.183105,-0.061035,-0.061035,21.00,0
390040178,21758.891898,1777900590.489869,-273,-1736,-1034,-3,0,-1,-0.133301,-0.847656,-0.504883,-0.183105,0.000000,-0.061035,21.11,1
390041190,21758.891905,1777900590.490884,-271,-1733,-1033,-3,-1,-1,-0.132324,-0.846191,-0.504395,-0.183105,-0.061035,-0.061035,21.17,0
390042204,21758.891911,1777900590.491901,-271,-1734,-1033,-4,-1,-1,-0.132324,-0.846680,-0.504395,-0.244141,-0.061035,-0.061035,21.17,0
390043216,21758.900013,1777900590.492881,-271,-1736,-1032,-3,-1,-1,-0.132324,-0.847656,-0.503906,-0.183105,-0.061035,-0.061035,21.14,0
390044227,21758.900033,1777900590.493895,-271,-1733,-1029,-2,-1,0,-0.132324,-0.846191,-0.502441,-0.122070,-0.061035,0.000000,21.07,0
390045239,21758.900045,1777900590.494910,-272,-1733,-1028,-2,-1,-1,-0.132812,-0.846191,-0.501953,-0.122070,-0.061035,-0.061035,21.09,0
390046253,21758.900056,1777900590.495927,-270,-1735,-1031,-3,-1,-1,-0.131836,-0.847168,-0.503418,-0.183105,-0.061035,-0.061035,21.20,0
390047264,21758.900066,1777900590.496941,-267,-1734,-1032,-3,-1,-1,-0.130371,-0.846680,-0.503906,-0.183105,-0.061035,-0.061035,21.17,0
390048276,21758.900077,1777900590.497956,-268,-1734,-1031,-3,-2,-1,-0.130859,-0.846680,-0.503418,-0.183105,-0.122070,-0.061035,21.26,0
390049290,21758.900087,1777900590.498973,-270,-1734,-1028,-3,-1,0,-0.131836,-0.846680,-0.501953,-0.183105,-0.061035,0.000000,21.38,0
390050301,21758.900098,1777900590.499987,-272,-1732,-1028,-3,0,0,-0.132812,-0.845703,-0.501953,-0.183105,0.000000,0.000000,21.24,0
390051315,21758.908064,1777900590.500968,-273,-1732,-1029,-3,-1,-1,-0.133301,-0.845703,-0.502441,-0.183105,-0.061035,-0.061035,21.11,1
390052327,21758.908080,1777900590.501983,-271,-1732,-1031,-3,-1,-1,-0.132324,-0.845703,-0.503418,-0.183105,-0.061035,-0.061035,21.21,0
390053339,21758.908087,1777900590.502998,-269,-1734,-1032,-3,0,-1,-0.131348,-0.846680,-0.503906,-0.183105,0.000000,-0.061035,21.09,0
390054350,21758.908094,1777900590.504012,-267,-1736,-1029,-4,-1,0,-0.130371,-0.847656,-0.502441,-0.244141,-0.061035,0.000000,21.17,0
390055363,21758.908100,1777900590.505028,-268,-1733,-1029,-4,-1,0,-0.130859,-0.846191,-0.502441,-0.244141,-0.061035,0.000000,21.17,0
390056377,21758.908107,1777900590.506045,-272,-1732,-1035,-3,-1,-1,-0.132812,-0.845703,-0.505371,-0.183105,-0.061035,-0.061035,21.26,0
390057388,21758.908113,1777900590.507059,-271,-1732,-1036,-2,-1,-1,-0.132324,-0.845703,-0.505859,-0.122070,-0.061035,-0.061035,21.12,0
390058398,21758.908120,1777900590.508072,-268,-1732,-1031,-2,-1,0,-0.130859,-0.845703,-0.503418,-0.122070,-0.061035,0.000000,21.07,0
390059411,21758.916163,1777900590.509088,-270,-1734,-1030,-4,0,0,-0.131836,-0.846680,-0.502930,-0.244141,0.000000,0.000000,21.29,0
390060424,21758.916185,1777900590.510104,-272,-1736,-1032,-3,-1,-1,-0.132812,-0.847656,-0.503906,-0.183105,-0.061035,-0.061035,21.15,0
390061435,21758.916194,1777900590.511118,-270,-1735,-1034,-2,-2,-1,-0.131836,-0.847168,-0.504883,-0.122070,-0.122070,-0.061035,21.35,0
390062447,21758.916203,1777900590.512099,-268,-1736,-1033,-2,-2,0,-0.130859,-0.847656,-0.504395,-0.122070,-0.122070,0.000000,21.09,1
390063462,21758.916214,1777900590.513117,-269,-1736,-1029,-2,-1,0,-0.131348,-0.847656,-0.502441,-0.122070,-0.061035,0.000000,21.07,0
390064473,21758.916224,1777900590.514131,-271,-1733,-1028,-2,-1,0,-0.132324,-0.846191,-0.501953,-0.122070,-0.061035,0.000000,21.35,0
390065487,21758.916234,1777900590.515148,-272,-1732,-1030,-3,-1,-1,-0.132812,-0.845703,-0.502930,-0.183105,-0.061035,-0.061035,21.20,0
390066498,21758.916245,1777900590.516161,-272,-1734,-1031,-3,-2,0,-0.132812,-0.846680,-0.503418,-0.183105,-0.122070,0.000000,21.17,0
390067511,21758.924239,1777900590.517177,-270,-1734,-1032,-3,-2,-1,-0.131836,-0.846680,-0.503906,-0.183105,-0.122070,-0.061035,21.17,0
390068523,21758.924256,1777900590.518192,-270,-1733,-1032,-3,-2,-1,-0.131836,-0.846191,-0.503906,-0.183105,-0.122070,-0.061035,21.20,0
390069536,21758.924266,1777900590.519208,-272,-1733,-1032,-3,-2,-1,-0.132812,-0.846191,-0.503906,-0.183105,-0.122070,-0.061035,21.14,0
390070547,21758.924277,1777900590.520222,-274,-1735,-1033,-3,-1,-1,-0.133789,-0.847168,-0.504395,-0.183105,-0.061035,-0.061035,21.20,0
390071560,21758.924287,1777900590.521237,-274,-1735,-1028,-2,-1,0,-0.133789,-0.847168,-0.501953,-0.122070,-0.061035,0.000000,21.20,0
390072570,21758.924297,1777900590.522250,-272,-1731,-1025,-2,-1,0,-0.132812,-0.845215,-0.500488,-0.122070,-0.061035,0.000000,21.47,0
390073585,21758.924307,1777900590.523268,-269,-1729,-1029,-3,-2,-1,-0.131348,-0.844238,-0.502441,-0.183105,-0.122070,-0.061035,21.33,1
390074596,21758.924317,1777900590.524282,-269,-1732,-1035,-3,-2,-1,-0.131348,-0.845703,-0.505371,-0.183105,-0.122070,-0.061035,21.12,0
390075608,21758.932338,1777900590.525262,-273,-1734,-1037,-2,-2,-2,-0.133301,-0.846680,-0.506348,-0.122070,-0.122070,-0.122070,21.11,0
390076621,21758.932353,1777900590.526278,-273,-1732,-1036,-2,-2,-1,-0.133301,-0.845703,-0.505859,-0.122070,-0.122070,-0.061035,21.14,0
390077632,21758.932362,1777900590.527292,-272,-1732,-1033,-2,-1,0,-0.132812,-0.845703,-0.504395,-0.122070,-0.061035,0.000000,21.07,0
390078646,21758.932417,1777900590.528308,-272,-1735,-1029,-3,0,0,-0.132812,-0.847168,-0.502441,-0.183105,0.000000,0.000000,21.30,0
390079658,21758.932427,1777900590.529323,-272,-1734,-1029,-3,-1,-2,-0.132812,-0.846680,-0.502441,-0.183105,-0.061035,-0.122070,21.11,0
390080671,21758.932437,1777900590.530339,-270,-1732,-1032,-1,-2,-1,-0.131836,-0.845703,-0.503906,-0.061035,-0.122070,-0.061035,21.23,0
390081682,21758.932446,1777900590.531353,-268,-1734,-1033,-1,-2,0,-0.130859,-0.846680,-0.504395,-0.061035,-0.122070,0.000000,21.14,0
390082693,21758.932455,1777900590.532366,-267,-1735,-1033,-3,-2,0,-0.130371,-0.847168,-0.504395,-0.183105,-0.122070,0.000000,21.20,0
390083707,21758.940464,1777900590.533383,-267,-1734,-1035,-4,-2,0,-0.130371,-0.846680,-0.505371,-0.244141,-0.122070,0.000000,21.18,0
390084719,21758.940483,1777900590.534364,-270,-1733,-1035,-3,-1,-1,-0.131836,-0.846191,-0.505371,-0.183105,-0.061035,-0.061035,21.14,1
390085730,21758.940494,1777900590.535377,-271,-1731,-1032,-3,-1,-1,-0.132324,-0.845215,-0.503906,-0.183105,-0.061035,-0.061035,21.26,0
390086742,21758.940504,1777900590.536392,-270,-1733,-1029,-3,-1,-1,-0.131836,-0.846191,-0.502441,-0.183105,-0.061035,-0.061035,21.07,0
390087754,21758.940514,1777900590.537406,-274,-1736,-1031,-2,-1,-1,-0.133789,-0.847656,-0.503418,-0.122070,-0.061035,-0.061035,21.29,0
390088768,21758.940525,1777900590.538423,-274,-1735,-1033,-2,-1,-1,-0.133789,-0.847168,-0.504395,-0.122070,-0.061035,-0.061035,21.33,0
390089779,21758.940535,1777900590.539436,-271,-1734,-1032,-2,-1,-1,-0.132324,-0.846680,-0.503906,-0.122070,-0.061035,-0.061035,21.01,0
390090792,21758.940544,1777900590.540452,-272,-1735,-1028,-2,-1,-1,-0.132812,-0.847168,-0.501953,-0.122070,-0.061035,-0.061035,21.15,0
390091804,21758.948548,1777900590.541466,-270,-1733,-1025,-3,-2,-1,-0.131836,-0.846191,-0.500488,-0.183105,-0.122070,-0.061035,21.20,0
390092817,21758.948564,1777900590.542482,-270,-1730,-1028,-3,-2,-1,-0.131836,-0.844727,-0.501953,-0.183105,-0.122070,-0.061035,21.15,0
390093828,21758.948574,1777900590.543496,-272,-1730,-1032,-3,-1,-1,-0.132812,-0.844727,-0.503906,-0.183105,-0.061035,-0.061035,21.01,0
390094842,21758.948584,1777900590.544512,-272,-1731,-1034,-3,0,0,-0.132812,-0.845215,-0.504883,-0.183105,0.000000,0.000000,21.30,0
390095853,21758.948594,1777900590.545526,-273,-1733,-1033,-3,0,-1,-0.133301,-0.846191,-0.504395,-0.183105,0.000000,-0.061035,21.23,1
390096866,21758.948605,1777900590.546541,-273,-1735,-1030,-3,-2,-2,-0.133301,-0.847168,-0.502930,-0.183105,-0.122070,-0.122070,21.09,0
390097878,21758.948615,1777900590.547556,-270,-1735,-1030,-3,-3,0,-0.131836,-0.847168,-0.502930,-0.183105,-0.183105,0.000000,21.17,0
390098889,21758.948625,1777900590.548570,-271,-1736,-1031,-3,-1,1,-0.132324,-0.847656,-0.503418,-0.183105,-0.061035,0.061035,21.17,0
390099902,21758.956721,1777900590.549552,-273,-1735,-1029,-3,0,0,-0.133301,-0.847168,-0.502441,-0.183105,0.000000,0.000000,21.23,0
390100913,21758.956743,1777900590.550566,-270,-1734,-1026,-3,-1,-1,-0.131836,-0.846680,-0.500977,-0.183105,-0.061035,-0.061035,21.20,0
390101927,21758.956753,1777900590.551582,-268,-1736,-1025,-4,-3,0,-0.130859,-0.847656,-0.500488,-0.244141,-0.183105,0.000000,21.15,0
390102939,21758.956762,1777900590.552597,-272,-1735,-1031,-3,-2,-1,-0.132812,-0.847168,-0.503418,-0.183105,-0.122070,-0.061035,20.98,0
390103951,21758.956770,1777900590.553611,-275,-1732,-1035,-2,-1,-1,-0.134277,-0.845703,-0.505371,-0.122070,-0.061035,-0.061035,21.01,0
390104964,21758.956778,1777900590.554627,-274,-1732,-1032,-2,-1,0,-0.133789,-0.845703,-0.503906,-0.122070,-0.061035,0.000000,21.07,0
390105977,21758.956787,1777900590.555642,-272,-1732,-1032,-2,-1,-1,-0.132812,-0.845703,-0.503906,-0.122070,-0.061035,-0.061035,21.18,0
390106989,21758.956795,1777900590.556657,-271,-1735,-1032,-3,-2,-1,-0.132324,-0.847168,-0.503906,-0.183105,-0.122070,-0.061035,21.07,1
390108001,21758.964741,1777900590.557638,-270,-1735,-1029,-3,-1,-1,-0.131836,-0.847168,-0.502441,-0.183105,-0.061035,-0.061035,21.03,0
390109013,21758.964761,1777900590.558652,-270,-1732,-1032,-2,0,0,-0.131836,-0.845703,-0.503906,-0.122070,0.000000,0.000000,21.01,0
390110025,21758.964768,1777900590.559667,-271,-1733,-1037,-1,0,0,-0.132324,-0.846191,-0.506348,-0.061035,0.000000,0.000000,21.07,0
390111038,21758.964775,1777900590.560682,-267,-1734,-1035,-2,-1,0,-0.130371,-0.846680,-0.505371,-0.122070,-0.061035,0.000000,21.04,0
390112050,21758.964782,1777900590.561697,-268,-1729,-1032,-3,-2,-1,-0.130859,-0.844238,-0.503906,-0.183105,-0.122070,-0.061035,21.17,0
390113060,21758.964789,1777900590.562709,-271,-1729,-1032,-3,-2,-1,-0.132324,-0.844238,-0.503906,-0.183105,-0.122070,-0.061035,21.07,0
390114074,21758.964795,1777900590.563725,-271,-1735,-1030,-2,0,-1,-0.132324,-0.847168,-0.502930,-0.122070,0.000000,-0.061035,21.18,0
390115094,21758.964802,1777900590.564748,-271,-1734,-1031,-2,0,-1,-0.132324,-0.846680,-0.503418,-0.122070,0.000000,-0.061035,21.15,0
390116100,21758.972849,1777900590.565756,-271,-1728,-1031,-2,-1,-1,-0.132324,-0.843750,-0.503418,-0.122070,-0.061035,-0.061035,21.11,0
390117111,21758.972871,1777900590.566769,-270,-1731,-1032,-2,-1,-2,-0.131836,-0.845215,-0.503906,-0.122070,-0.061035,-0.122070,21.15,0
390118122,21758.972881,1777900590.567750,-271,-1737,-1034,-2,-1,-2,-0.132324,-0.848145,-0.504883,-0.122070,-0.061035,-0.122070,21.09,1
390119136,21758.972891,1777900590.568767,-270,-1738,-1033,-3,-1,-2,-0.131836,-0.848633,-0.504395,-0.183105,-0.061035,-0.122070,21.09,0
390120148,21758.972899,1777900590.569781,-270,-1733,-1031,-3,-1,1,-0.131836,-0.846191,-0.503418,-0.183105,-0.061035,0.061035,21.38,0
390121160,21758.972910,1777900590.570795,-272,-1731,-1031,-2,-1,1,-0.132812,-0.845215,-0.503418,-0.122070,-0.061035,0.061035,21.09,0
390122173,21758.972922,1777900590.571810,-272,-1732,-1030,-2,-2,0,-0.132812,-0.845703,-0.502930,-0.122070,-0.122070,0.000000,21.11,0
390123184,21758.972934,1777900590.572824,-270,-1735,-1034,-3,-2,-2,-0.131836,-0.847168,-0.504883,-0.183105,-0.122070,-0.122070,21.07,0
390124196,21758.980982,1777900590.573838,-270,-1740,-1038,-3,-2,-3,-0.131836,-0.849609,-0.506836,-0.183105,-0.122070,-0.183105,21.14,0
390125210,21758.981000,1777900590.574854,-268,-1739,-1035,-2,-1,-1,-0.130859,-0.849121,-0.505371,-0.122070,-0.061035,-0.061035,21.11,0
390126221,21758.981018,1777900590.575867,-267,-1734,-1031,-3,-1,0,-0.130371,-0.846680,-0.503418,-0.183105,-0.061035,0.000000,21.32,0
390127232,21758.981027,1777900590.576881,-269,-1736,-1031,-4,-1,0,-0.131348,-0.847656,-0.503418,-0.244141,-0.061035,0.000000,21.11,0
390128246,21758.981035,1777900590.577897,-270,-1735,-1031,-3,-2,-1,-0.131836,-0.847168,-0.503418,-0.183105,-0.122070,-0.061035,21.11,0
390129256,21758.981043,1777900590.578909,-272,-1729,-1030,-2,-1,0,-0.132812,-0.844238,-0.502930,-0.122070,-0.061035,0.000000,21.07,1
390130271,21758.981052,1777900590.579926,-269,-1730,-1030,-2,0,1,-0.131348,-0.844727,-0.502930,-0.122070,0.000000,0.061035,21.06,0
390131282,21758.981061,1777900590.580940,-269,-1735,-1033,-3,-2,-1,-0.131348,-0.847168,-0.504395,-0.183105,-0.122070,-0.061035,21.17,0
390132295,21758.989053,1777900590.581923,-272,-1737,-1031,-2,-2,-3,-0.132812,-0.848145,-0.503418,-0.122070,-0.122070,-0.183105,21.07,0
390133305,21758.989068,1777900590.582936,-271,-1737,-1027,-2,-1,-2,-0.132324,-0.848145,-0.501465,-0.122070,-0.061035,-0.122070,21.11,0
390134320,21758.989075,1777900590.583953,-269,-1739,-1029,-2,-1,0,-0.131348,-0.849121,-0.502441,-0.122070,-0.061035,0.000000,21.17,0
390135331,21758.989082,1777900590.584966,-272,-1741,-1033,-2,-1,0,-0.132812,-0.850098,-0.504395,-0.122070,-0.061035,0.000000,21.17,0
390136342,21758.989088,1777900590.585979,-274,-1736,-1033,-2,-1,0,-0.133789,-0.847656,-0.504395,-0.122070,-0.061035,0.000000,21.17,0
390137356,21758.989095,1777900590.586995,-271,-1730,-1031,-2,-1,0,-0.132324,-0.844727,-0.503418,-0.122070,-0.061035,0.000000,21.11,0
390138368,21758.989102,1777900590.588010,-271,-1731,-1028,-2,-1,-1,-0.132324,-0.845215,-0.501953,-0.122070,-0.061035,-0.061035,21.11,0
390139379,21758.989109,1777900590.589023,-272,-1733,-1026,-3,-1,-1,-0.132812,-0.846191,-0.500977,-0.183105,-0.061035,-0.061035,21.32,0
390140393,21758.997168,1777900590.590009,-271,-1730,-1028,-3,-1,-1,-0.132324,-0.844727,-0.501953,-0.183105,-0.061035,-0.061035,21.33,1
390141406,21758.997193,1777900590.591024,-270,-1732,-1031,-2,-1,-2,-0.131836,-0.845703,-0.503418,-0.122070,-0.061035,-0.122070,21.07,0
390142416,21758.997200,1777900590.592036,-268,-1736,-1030,-4,-1,-2,-0.130859,-0.847656,-0.502930,-0.244141,-0.061035,-0.122070,21.11,0
390143428,21758.997208,1777900590.593050,-266,-1738,-1028,-4,-1,-1,-0.129883,-0.848633,-0.501953,-0.244141,-0.061035,-0.061035,20.97,0
390144443,21758.997214,1777900590.594068,-266,-1737,-1029,-3,0,-1,-0.129883,-0.848145,-0.502441,-0.183105,0.000000,-0.061035,21.15,0
390145454,21758.997221,1777900590.595081,-267,-1735,-1032,-3,-1,0,-0.130371,-0.847168,-0.503906,-0.183105,-0.061035,0.000000,21.07,0
390146466,21758.997228,1777900590.596095,-270,-1730,-1033,-3,-1,0,-0.131836,-0.844727,-0.504395,-0.183105,-0.061035,0.000000,21.11,0
390147479,21758.997234,1777900590.597110,-275,-1730,-1029,-3,-1,-1,-0.134277,-0.844727,-0.502441,-0.183105,-0.061035,-0.061035,21.09,0
390148491,21759.005243,1777900590.598124,-279,-1734,-1027,-3,-1,-1,-0.136230,-0.846680,-0.501465,-0.183105,-0.061035,-0.061035,21.14,0
390149504,21759.005255,1777900590.599139,-276,-1733,-1031,-3,-1,-2,-0.134766,-0.846191,-0.503418,-0.183105,-0.061035,-0.122070,21.09,0
390150515,21759.005262,1777900590.600152,-268,-1733,-1030,-3,-2,-3,-0.130859,-0.846191,-0.502930,-0.183105,-0.122070,-0.183105,21.26,0
390151527,21759.005268,1777900590.601136,-267,-1735,-1028,-4,-1,-2,-0.130371,-0.847168,-0.501953,-0.244141,-0.061035,-0.122070,21.09,1
390152541,21759.005275,1777900590.602152,-269,-1736,-1031,-3,0,0,-0.131348,-0.847656,-0.503418,-0.183105,0.000000,0.000000,21.12,0
390153553,21759.005282,1777900590.603166,-266,-1734,-1031,-1,0,2,-0.129883,-0.846680,-0.503418,-0.061035,0.000000,0.122070,21.01,0
390154563,21759.005289,1777900590.604178,-267,-1731,-1030,-2,-1,2,-0.130371,-0.845215,-0.502930,-0.122070,-0.061035,0.122070,21.26,0
390155577,21759.005295,1777900590.605194,-272,-1732,-1031,-2,-2,0,-0.132812,-0.845703,-0.503418,-0.122070,-0.122070,0.000000,21.12,0
390156588,21759.013332,1777900590.606207,-270,-1734,-1034,-2,-1,-2,-0.131836,-0.846680,-0.504883,-0.122070,-0.061035,-0.122070,21.21,0
390157600,21759.013350,1777900590.607221,-268,-1734,-1032,-3,-1,-2,-0.130859,-0.846680,-0.503906,-0.183105,-0.061035,-0.122070,21.18,0
390158614,21759.013358,1777900590.608237,-270,-1736,-1032,-3,-1,-2,-0.131836,-0.847656,-0.503906,-0.183105,-0.061035,-0.122070,21.11,0
390159625,21759.013365,1777900590.609250,-270,-1740,-1034,-3,-2,-1,-0.131836,-0.849609,-0.504883,-0.183105,-0.122070,-0.061035,21.07,0
390160638,21759.013371,1777900590.610265,-268,-1737,-1031,-2,-1,0,-0.130859,-0.848145,-0.503418,-0.122070,-0.061035,0.000000,21.12,0
390161649,21759.013378,1777900590.611278,-271,-1734,-1028,-2,-1,1,-0.132324,-0.846680,-0.501953,-0.122070,-0.061035,0.061035,21.06,0
390162663,21759.013385,1777900590.612294,-275,-1734,-1027,-3,-1,0,-0.134277,-0.846680,-0.501465,-0.183105,-0.061035,0.000000,21.26,1
390163675,21759.013392,1777900590.613308,-274,-1732,-1025,-4,-1,-1,-0.133789,-0.845703,-0.500488,-0.244141,-0.061035,-0.061035,21.07,0
390164688,21759.021445,1777900590.614294,-272,-1730,-1025,-4,-2,-1,-0.132812,-0.844727,-0.500488,-0.244141,-0.122070,-0.061035,21.03,0
390165700,21759.021472,1777900590.615308,-271,-1734,-1028,-3,-2,-2,-0.132324,-0.846680,-0.501953,-0.183105,-0.122070,-0.122070,21.26,0
390166710,21759.021480,1777900590.616320,-270,-1736,-1032,-3,-1,-1,-0.131836,-0.847656,-0.503906,-0.183105,-0.061035,-0.061035,21.15,0
390167724,21759.021487,1777900590.617336,-271,-1736,-1033,-3,-2,-1,-0.132324,-0.847656,-0.504395,-0.183105,-0.122070,-0.061035,21.11,0
390168737,21759.021494,1777900590.618351,-275,-1736,-1027,-2,-2,-1,-0.134277,-0.847656,-0.501465,-0.122070,-0.122070,-0.061035,21.17,0
390169748,21759.021500,1777900590.619363,-273,-1738,-1025,-3,-2,-2,-0.133301,-0.848633,-0.500488,-0.183105,-0.122070,-0.122070,21.14,0
390170761,21759.021507,1777900590.620378,-272,-1737,-1030,-3,-1,-1,-0.132812,-0.848145,-0.502930,-0.183105,-0.061035,-0.061035,21.30,0
390171771,21759.021514,1777900590.621390,-273,-1734,-1031,-2,-1,0,-0.133301,-0.846680,-0.503418,-0.122070,-0.061035,0.000000,21.35,0
390172786,21759.029547,1777900590.622407,-272,-1733,-1031,-2,-1,0,-0.132812,-0.846191,-0.503418,-0.122070,-0.061035,0.000000,21.33,0
390173796,21759.029574,1777900590.623390,-270,-1732,-1031,-3,-1,0,-0.131836,-0.845703,-0.503418,-0.183105,-0.061035,0.000000,21.21,1
390174808,21759.029588,1777900590.624404,-269,-1728,-1032,-3,-1,0,-0.131348,-0.843750,-0.503906,-0.183105,-0.061035,0.000000,21.24,0
390175821,21759.029601,1777900590.625419,-270,-1727,-1034,-2,-1,0,-0.131836,-0.843262,-0.504883,-0.122070,-0.061035,0.000000,21.17,0
390176835,21759.029614,1777900590.626434,-273,-1733,-1034,-2,-1,-1,-0.133301,-0.846191,-0.504883,-0.122070,-0.061035,-0.061035,21.24,0
390177847,21759.029627,1777900590.627448,-272,-1737,-1032,-3,-2,-1,-0.132812,-0.848145,-0.503906,-0.183105,-0.122070,-0.061035,21.14,0
390178858,21759.029638,1777900590.628461,-267,-1734,-1029,-3,-2,-1,-0.130371,-0.846680,-0.502441,-0.183105,-0.122070,-0.061035,21.11,0
390179872,21759.029651,1777900590.629477,-267,-1731,-1030,-3,-1,-1,-0.130371,-0.845215,-0.502930,-0.183105,-0.061035,-0.061035,21.20,0
390180883,21759.037656,1777900590.630490,-272,-1735,-1030,-2,0,-1,-0.132812,-0.847168,-0.502930,-0.122070,0.000000,-0.061035,21.15,0
390181895,21759.037702,1777900590.631503,-274,-1736,-1030,-2,-1,-1,-0.133789,-0.847656,-0.502930,-0.122070,-0.061035,-0.061035,21.09,0
390182907,21759.037714,1777900590.632517,-271,-1733,-1033,-3,-1,0,-0.132324,-0.846191,-0.504395,-0.183105,-0.061035,0.000000,21.18,0
390183921,21759.037723,1777900590.633533,-269,-1735,-1033,-3,-1,0,-0.131348,-0.847168,-0.504395,-0.183105,-0.061035,0.000000,21.38,0
390184931,21759.037733,1777900590.634545,-272,-1735,-1030,-3,-2,-1,-0.132812,-0.847168,-0.502930,-0.183105,-0.122070,-0.061035,21.07,1
390185943,21759.037746,1777900590.635559,-269,-1732,-1033,-3,-2,-1,-0.131348,-0.845703,-0.504395,-0.183105,-0.122070,-0.061035,21.11,0
390186956,21759.037756,1777900590.636574,-266,-1734,-1035,-3,-2,-1,-0.129883,-0.846680,-0.505371,-0.183105,-0.122070,-0.061035,21.09,0
390187969,21759.037767,1777900590.637588,-269,-1733,-1033,-3,-2,-2,-0.131348,-0.846191,-0.504395,-0.183105,-0.122070,-0.122070,21.38,0
390188982,21759.045741,1777900590.638575,-272,-1733,-1030,-3,-2,-1,-0.132812,-0.846191,-0.502930,-0.183105,-0.122070,-0.061035,21.23,0
390189994,21759.045759,1777900590.639589,-272,-1734,-1031,-3,-2,-1,-0.132812,-0.846680,-0.503418,-0.183105,-0.122070,-0.061035,21.32,0
390191004,21759.045766,1777900590.640601,-272,-1733,-1032,-1,-2,-1,-0.132812,-0.846191,-0.503906,-0.061035,-0.122070,-0.061035,21.21,0
390192018,21759.045773,1777900590.641617,-272,-1734,-1033,-1,-2,-2,-0.132812,-0.846680,-0.504395,-0.061035,-0.122070,-0.122070,21.24,0
390193030,21759.045780,1777900590.642630,-272,-1735,-1032,-3,-2,-3,-0.132812,-0.847168,-0.503906,-0.183105,-0.122070,-0.183105,21.07,0
390194043,21759.045787,1777900590.643645,-273,-1738,-1031,-4,-1,-2,-0.133301,-0.848633,-0.503418,-0.244141,-0.061035,-0.122070,21.07,0
390195054,21759.045794,1777900590.644658,-272,-1742,-1029,-3,0,0,-0.132812,-0.850586,-0.502441,-0.183105,0.000000,0.000000,21.30,0
390196067,21759.045801,1777900590.645672,-274,-1737,-1027,-2,-1,1,-0.133789,-0.848145,-0.501465,-0.122070,-0.061035,0.061035,21.18,1
390197078,21759.053829,1777900590.646658,-276,-1732,-1030,-2,-2,1,-0.134766,-0.845703,-0.502930,-0.122070,-0.122070,0.061035,21.23,0
390198096,21759.053860,1777900590.647678,-273,-1734,-1033,-3,-2,1,-0.133301,-0.846680,-0.504395,-0.183105,-0.122070,0.061035,21.35,0
390199104,21759.053870,1777900590.648687,-271,-1734,-1034,-2,-2,0,-0.132324,-0.846680,-0.504883,-0.122070,-0.122070,0.000000,21.18,0
390200114,21759.053880,1777900590.649699,-270,-1731,-1033,-3,-1,0,-0.131836,-0.845215,-0.504395,-0.183105,-0.061035,0.000000,21.03,0
390201129,21759.053891,1777900590.650716,-268,-1730,-1032,-3,-1,-1,-0.130859,-0.844727,-0.503906,-0.183105,-0.061035,-0.061035,21.15,0
390202139,21759.053945,1777900590.651727,-272,-1733,-1032,-3,-1,-1,-0.132812,-0.846191,-0.503906,-0.183105,-0.061035,-0.061035,21.20,0
390203153,21759.053957,1777900590.652743,-275,-1735,-1033,-2,-1,-1,-0.134277,-0.847168,-0.504395,-0.122070,-0.061035,-0.061035,21.18,0
390204165,21759.053968,1777900590.653757,-271,-1733,-1034,-3,-1,0,-0.132324,-0.846191,-0.504883,-0.183105,-0.061035,0.000000,21.15,0
390205176,21759.061990,1777900590.654769,-270,-1733,-1032,-3,-2,-1,-0.131836,-0.846191,-0.503906,-0.183105,-0.122070,-0.061035,21.24,0
390206190,21759.062022,1777900590.655785,-272,-1733,-1029,-2,-1,-2,-0.132812,-0.846191,-0.502441,-0.122070,-0.061035,-0.122070,21.11,0
390207201,21759.062029,1777900590.656771,-271,-1733,-1029,-2,-1,-1,-0.132324,-0.846191,-0.502441,-0.122070,-0.061035,-0.061035,21.03,1
390208215,21759.062038,1777900590.657787,-271,-1733,-1031,-3,-2,-1,-0.132324,-0.846191,-0.503418,-0.183105,-0.122070,-0.061035,21.11,0
390209226,21759.062045,1777900590.658799,-275,-1734,-1034,-2,-2,-1,-0.134277,-0.846680,-0.504883,-0.122070,-0.122070,-0.061035,21.14,0
390210239,21759.062051,1777900590.659814,-274,-1733,-1031,-3,-1,-1,-0.133789,-0.846191,-0.503418,-0.183105,-0.061035,-0.061035,21.17,0
390211251,21759.062058,1777900590.660828,-270,-1731,-1031,-3,-1,0,-0.131836,-0.845215,-0.503418,-0.183105,-0.061035,0.000000,21.15,0
390212263,21759.062065,1777900590.661841,-271,-1735,-1035,-3,-1,-1,-0.132324,-0.847168,-0.505371,-0.183105,-0.061035,-0.061035,21.23,0
390213274,21759.070041,1777900590.662854,-270,-1738,-1035,-3,-1,-2,-0.131836,-0.848633,-0.505371,-0.183105,-0.061035,-0.122070,21.15,0
390214287,21759.070065,1777900590.663868,-269,-1737,-1035,-2,0,-2,-0.131348,-0.848145,-0.505371,-0.122070,0.000000,-0.122070,21.20,0
390215301,21759.070077,1777900590.664884,-273,-1734,-1033,-2,1,-1,-0.133301,-0.846680,-0.504395,-0.122070,0.061035,-0.061035,21.27,0
390216311,21759.070088,1777900590.665895,-274,-1733,-1030,-3,0,-1,-0.133789,-0.846191,-0.502930,-0.183105,0.000000,-0.061035,21.15,0
390217325,21759.070099,1777900590.666911,-272,-1733,-1030,-5,-2,-1,-0.132812,-0.846191,-0.502930,-0.305176,-0.122070,-0.061035,21.11,0
390218337,21759.070109,1777900590.667925,-273,-1734,-1028,-5,-2,-1,-0.133301,-0.846680,-0.501953,-0.305176,-0.122070,-0.061035,21.17,1
390219349,21759.070121,1777900590.668938,-274,-1738,-1029,-3,-1,-1,-0.133789,-0.848633,-0.502441,-0.183105,-0.061035,-0.061035,21.23,0
390220360,21759.070132,1777900590.669951,-273,-1740,-1032,-3,-1,-1,-0.133301,-0.849609,-0.503906,-0.183105,-0.061035,-0.061035,21.18,0
390221373,21759.078141,1777900590.670939,-273,-1736,-1030,-3,0,-2,-0.133301,-0.847656,-0.502930,-0.183105,0.000000,-0.122070,21.30,0
390222385,21759.078162,1777900590.671953,-270,-1732,-1031,-3,-1,-1,-0.131836,-0.845703,-0.503418,-0.183105,-0.061035,-0.061035,21.15,0
390223397,21759.078173,1777900590.672966,-268,-1732,-1035,-3,-3,0,-0.130859,-0.845703,-0.505371,-0.183105,-0.183105,0.000000,21.07,0
390224409,21759.078184,1777900590.673980,-270,-1734,-1034,-3,-3,-1,-0.131836,-0.846680,-0.504883,-0.183105,-0.183105,-0.061035,21.20,0
390225423,21759.078194,1777900590.674995,-268,-1732,-1032,-3,-1,-1,-0.130859,-0.845703,-0.503906,-0.183105,-0.061035,-0.061035,21.21,0
390226434,21759.078205,1777900590.676008,-269,-1731,-1031,-3,-1,-1,-0.131348,-0.845215,-0.503418,-0.183105,-0.061035,-0.061035,21.24,0
390227446,21759.078215,1777900590.677022,-272,-1734,-1031,-2,-1,0,-0.132812,-0.846680,-0.503418,-0.122070,-0.061035,0.000000,21.26,0
390228459,21759.078226,1777900590.678036,-272,-1736,-1031,-2,-2,-1,-0.132812,-0.847656,-0.503418,-0.122070,-0.122070,-0.061035,21.24,0
390229470,21759.088214,1777900590.679049,-272,-1737,-1026,-3,-2,-1,-0.132812,-0.848145,-0.500977,-0.183105,-0.122070,-0.061035,21.14,1
390230483,21759.088240,1777900590.680063,-273,-1736,-1026,-2,-1,-1,-0.133301,-0.847656,-0.500977,-0.122070,-0.061035,-0.061035,21.14,0
390231494,21759.088252,1777900590.681076,-271,-1733,-1032,-2,0,-2,-0.132324,-0.846191,-0.503906,-0.122070,0.000000,-0.122070,21.14,0
390232509,21759.088263,1777900590.682092,-270,-1730,-1032,-2,0,-2,-0.131836,-0.844727,-0.503906,-0.122070,0.000000,-0.122070,21.11,0
390233520,21759.088274,1777900590.683105,-272,-1731,-1030,-2,-1,-1,-0.132812,-0.845215,-0.502930,-0.122070,-0.061035,-0.061035,21.17,0
390234532,21759.088285,1777900590.684118,-276,-1734,-1031,-2,0,-1,-0.134766,-0.846680,-0.503418,-0.122070,0.000000,-0.061035,21.21,0
390235545,21759.088295,1777900590.685133,-275,-1733,-1035,-2,0,-1,-0.134277,-0.846191,-0.505371,-0.122070,0.000000,-0.061035,21.23,0
390236557,21759.088306,1777900590.686146,-270,-1730,-1034,-3,0,0,-0.131836,-0.844727,-0.504883,-0.183105,0.000000,0.000000,21.20,0
390237568,21759.094345,1777900590.687159,-270,-1733,-1033,-3,0,0,-0.131836,-0.846191,-0.504395,-0.183105,0.000000,0.000000,21.27,0
390238580,21759.094374,1777900590.688172,-271,-1735,-1032,-2,-1,-1,-0.132324,-0.847168,-0.503906,-0.122070,-0.061035,-0.061035,21.15,0
390239594,21759.094382,1777900590.689188,-271,-1733,-1033,-2,-1,-1,-0.132324,-0.846191,-0.504395,-0.122070,-0.061035,-0.061035,21.09,0
390240607,21759.094389,1777900590.690173,-270,-1734,-1033,-3,-1,0,-0.131836,-0.846680,-0.504395,-0.183105,-0.061035,0.000000,21.23,1
390241620,21759.094397,1777900590.691188,-268,-1735,-1030,-3,-1,-1,-0.130859,-0.847168,-0.502930,-0.183105,-0.061035,-0.061035,21.23,0
390242631,21759.094404,1777900590.692200,-270,-1733,-1028,-2,0,-2,-0.131836,-0.846191,-0.501953,-0.122070,0.000000,-0.122070,21.07,0
390243643,21759.094411,1777900590.693214,-272,-1733,-1030,-3,0,-1,-0.132812,-0.846191,-0.502930,-0.183105,0.000000,-0.061035,21.07,0
390244654,21759.094417,1777900590.694226,-271,-1733,-1037,-2,0,0,-0.132324,-0.846191,-0.506348,-0.122070,0.000000,0.000000,21.07,0
390245667,21759.102421,1777900590.695240,-269,-1732,-1040,-2,-1,-1,-0.131348,-0.845703,-0.507812,-0.122070,-0.061035,-0.061035,21.09,0
390246680,21759.102442,1777900590.696255,-269,-1733,-1035,-3,-2,-1,-0.131348,-0.846191,-0.505371,-0.183105,-0.122070,-0.061035,21.11,0
390247692,21759.102452,1777900590.697268,-269,-1733,-1031,-3,-2,-1,-0.131348,-0.846191,-0.503418,-0.183105,-0.122070,-0.061035,21.12,0
390248704,21759.102462,1777900590.698282,-270,-1732,-1033,-4,-1,-1,-0.131836,-0.845703,-0.504395,-0.244141,-0.061035,-0.061035,21.17,0
390249715,21759.102472,1777900590.699294,-271,-1731,-1035,-3,-1,0,-0.132324,-0.845215,-0.505371,-0.183105,-0.061035,0.000000,21.07,0
390250730,21759.102483,1777900590.700311,-271,-1731,-1035,-4,-2,0,-0.132324,-0.845215,-0.505371,-0.244141,-0.122070,0.000000,21.15,0
390251740,21759.102493,1777900590.701322,-270,-1729,-1031,-4,-2,-1,-0.131836,-0.844238,-0.503418,-0.244141,-0.122070,-0.061035,21.09,1
390252753,21759.102505,1777900590.702337,-271,-1732,-1031,-4,-1,-1,-0.132324,-0.845703,-0.503418,-0.244141,-0.061035,-0.061035,21.07,0
390253765,21759.110555,1777900590.703323,-272,-1736,-1037,-3,-1,-1,-0.132812,-0.847656,-0.506348,-0.183105,-0.061035,-0.061035,21.17,0
390254778,21759.110587,1777900590.704337,-271,-1734,-1034,-3,0,-2,-0.132324,-0.846680,-0.504883,-0.183105,0.000000,-0.122070,21.01,0
390255791,21759.110608,1777900590.705352,-271,-1734,-1027,-4,0,-1,-0.132324,-0.846680,-0.501465,-0.244141,0.000000,-0.061035,20.89,0
390256802,21759.110617,1777900590.706364,-272,-1735,-1028,-4,-1,0,-0.132812,-0.847168,-0.501953,-0.244141,-0.061035,0.000000,21.15,0
390257813,21759.110626,1777900590.707376,-271,-1734,-1032,-3,-1,0,-0.132324,-0.846680,-0.503906,-0.183105,-0.061035,0.000000,21.14,0
390258826,21759.110635,1777900590.708391,-270,-1730,-1033,-2,0,-2,-0.131836,-0.844727,-0.504395,-0.122070,0.000000,-0.122070,21.15,0
390259839,21759.110644,1777900590.709405,-270,-1732,-1029,-3,-1,-2,-0.131836,-0.845703,-0.502441,-0.183105,-0.061035,-0.122070,21.21,0
390260850,21759.110653,1777900590.710418,-271,-1734,-1028,-3,-2,-1,-0.132324,-0.846680,-0.501953,-0.183105,-0.122070,-0.061035,21.07,0
390261862,21759.118613,1777900590.711431,-272,-1734,-1031,-3,-2,-1,-0.132812,-0.846680,-0.503418,-0.183105,-0.122070,-0.061035,21.11,0
390262874,21759.118631,1777900590.712418,-271,-1736,-1031,-2,-1,-2,-0.132324,-0.847656,-0.503418,-0.122070,-0.061035,-0.122070,21.15,1
390263888,21759.118686,1777900590.713433,-270,-1737,-1029,-2,-2,-1,-0.131836,-0.848145,-0.502441,-0.122070,-0.122070,-0.061035,21.06,0
390264901,21759.118698,1777900590.714447,-271,-1734,-1031,-2,-1,0,-0.132324,-0.846680,-0.503418,-0.122070,-0.061035,0.000000,21.06,0
390265913,21759.118708,1777900590.715461,-271,-1733,-1032,-3,0,0,-0.132324,-0.846191,-0.503906,-0.183105,0.000000,0.000000,21.20,0
390266925,21759.118717,1777900590.716474,-273,-1732,-1029,-3,0,-1,-0.133301,-0.845703,-0.502441,-0.183105,0.000000,-0.061035,21.17,0
390267938,21759.118727,1777900590.717488,-274,-1732,-1030,-2,-1,0,-0.133789,-0.845703,-0.502930,-0.122070,-0.061035,0.000000,21.14,0
390268950,21759.118738,1777900590.718502,-272,-1735,-1034,-2,-2,0,-0.132812,-0.847168,-0.504883,-0.122070,-0.122070,0.000000,21.18,0
390269960,21759.126723,1777900590.719513,-273,-1735,-1034,-2,-1,-1,-0.133301,-0.847168,-0.504883,-0.122070,-0.061035,-0.061035,21.12,0
390270973,21759.126740,1777900590.720527,-271,-1734,-1031,-2,-1,0,-0.132324,-0.846680,-0.503418,-0.122070,-0.061035,0.000000,21.11,0
390271986,21759.126750,1777900590.721542,-266,-1735,-1030,-2,-2,0,-0.129883,-0.847168,-0.502930,-0.122070,-0.122070,0.000000,21.23,0
390272999,21759.126760,1777900590.722556,-267,-1734,-1030,-3,-2,0,-0.130371,-0.846680,-0.502930,-0.183105,-0.122070,0.000000,21.04,0
390274011,21759.126770,1777900590.723569,-269,-1734,-1030,-3,-1,0,-0.131348,-0.846680,-0.502930,-0.183105,-0.061035,0.000000,21.06,1
390275023,21759.126782,1777900590.724583,-270,-1736,-1031,-2,-1,0,-0.131836,-0.847656,-0.503418,-0.122070,-0.061035,0.000000,21.14,0
390276036,21759.126792,1777900590.725597,-273,-1734,-1032,-2,-2,0,-0.133301,-0.846680,-0.503906,-0.122070,-0.122070,0.000000,21.17,0
390277048,21759.126802,1777900590.726610,-274,-1731,-1031,-4,-2,0,-0.133789,-0.845215,-0.503418,-0.244141,-0.122070,0.000000,21.18,0
390278061,21759.134780,1777900590.727599,-270,-1731,-1032,-3,-1,-1,-0.131836,-0.845215,-0.503906,-0.183105,-0.061035,-0.061035,21.14,0
390279072,21759.134797,1777900590.728611,-267,-1733,-1032,-3,-1,-1,-0.130371,-0.846191,-0.503906,-0.183105,-0.061035,-0.061035,21.07,0
390280099,21759.134806,1777900590.729639,-268,-1732,-1030,-3,-1,0,-0.130859,-0.845703,-0.502930,-0.183105,-0.061035,0.000000,21.17,0
390281101,21759.134815,1777900590.730643,-270,-1732,-1029,-3,-2,0,-0.131836,-0.845703,-0.502441,-0.183105,-0.122070,0.000000,21.21,0
390282109,21759.134824,1777900590.731652,-274,-1735,-1030,-3,-1,-2,-0.133789,-0.847168,-0.502930,-0.183105,-0.061035,-0.122070,21.24,0
390283119,21759.134833,1777900590.732663,-275,-1735,-1031,-2,-1,-3,-0.134277,-0.847168,-0.503418,-0.122070,-0.061035,-0.183105,21.26,0
390284134,21759.134841,1777900590.733679,-269,-1734,-1032,-3,-2,-2,-0.131348,-0.846680,-0.503906,-0.183105,-0.122070,-0.122070,21.17,0
390285146,21759.134851,1777900590.734693,-269,-1734,-1032,-3,-2,-1,-0.131348,-0.846680,-0.503906,-0.183105,-0.122070,-0.061035,21.15,1
390286157,21759.142987,1777900590.735680,-273,-1734,-1033,-3,-1,0,-0.133301,-0.846680,-0.504395,-0.183105,-0.061035,0.000000,21.24,0
390287169,21759.143009,1777900590.736693,-272,-1734,-1036,-3,-1,0,-0.132812,-0.846680,-0.505859,-0.183105,-0.061035,0.000000,21.17,0
390288183,21759.143019,1777900590.737708,-271,-1734,-1040,-3,-1,-1,-0.132324,-0.846680,-0.507812,-0.183105,-0.061035,-0.061035,21.11,0
390289194,21759.143028,1777900590.738720,-272,-1732,-1035,-2,-1,-2,-0.132812,-0.845703,-0.505371,-0.122070,-0.061035,-0.122070,21.23,0
390290207,21759.143037,1777900590.739734,-271,-1733,-1030,-2,-1,-1,-0.132324,-0.846191,-0.502930,-0.122070,-0.061035,-0.061035,21.09,0
390291220,21759.143046,1777900590.740749,-270,-1735,-1032,-3,-1,0,-0.131836,-0.847168,-0.503906,-0.183105,-0.061035,0.000000,21.04,0
390292229,21759.143055,1777900590.741759,-270,-1734,-1035,-3,-1,0,-0.131836,-0.846680,-0.505371,-0.183105,-0.061035,0.000000,21.20,0
390293243,21759.143064,1777900590.742774,-270,-1733,-1033,-3,-1,-1,-0.131836,-0.846191,-0.504395,-0.183105,-0.061035,-0.061035,21.24,0
390294254,21759.151011,1777900590.743786,-268,-1734,-1028,-3,-2,-1,-0.130859,-0.846680,-0.501953,-0.183105,-0.122070,-0.061035,21.29,0
390295268,21759.151036,1777900590.744802,-271,-1735,-1031,-3,-1,-1,-0.132324,-0.847168,-0.503418,-0.183105,-0.061035,-0.061035,21.15,0
390296280,21759.151047,1777900590.745791,-272,-1735,-1036,-3,-2,-1,-0.132812,-0.847168,-0.505859,-0.183105,-0.122070,-0.061035,21.07,1
390297291,21759.151058,1777900590.746803,-268,-1733,-1033,-3,-1,-1,-0.130859,-0.846191,-0.504395,-0.183105,-0.061035,-0.061035,21.09,0
390298304,21759.151068,1777900590.747817,-269,-1733,-1033,-3,-1,-1,-0.131348,-0.846191,-0.504395,-0.183105,-0.061035,-0.061035,21.15,0
390299318,21759.151078,1777900590.748832,-274,-1735,-1038,-2,0,-1,-0.133789,-0.847168,-0.506836,-0.122070,0.000000,-0.061035,21.21,0
390300329,21759.151088,1777900590.749844,-275,-1737,-1036,-3,-1,-1,-0.134277,-0.848145,-0.505859,-0.183105,-0.061035,-0.061035,21.07,0
390301341,21759.151098,1777900590.750858,-273,-1737,-1030,-3,-1,0,-0.133301,-0.848145,-0.502930,-0.183105,-0.061035,0.000000,21.14,0
390302352,21759.159108,1777900590.751870,-273,-1736,-1032,-3,0,1,-0.133301,-0.847656,-0.503906,-0.183105,0.000000,0.061035,21.21,0
390303366,21759.159125,1777900590.752885,-272,-1735,-1037,-3,-1,0,-0.132812,-0.847168,-0.506348,-0.183105,-0.061035,0.000000,21.36,0
390304379,21759.159135,1777900590.753899,-270,-1735,-1037,-3,-2,-1,-0.131836,-0.847168,-0.506348,-0.183105,-0.122070,-0.061035,21.14,0
390305391,21759.159145,1777900590.754912,-270,-1735,-1030,-3,-2,-1,-0.131836,-0.847168,-0.502930,-0.183105,-0.122070,-0.061035,21.23,0
390306404,21759.159155,1777900590.755926,-271,-1733,-1028,-2,-2,0,-0.132324,-0.846191,-0.501953,-0.122070,-0.122070,0.000000,21.07,0
390307416,21759.159165,1777900590.756939,-272,-1732,-1030,-2,-2,0,-0.132812,-0.845703,-0.502930,-0.122070,-0.122070,0.000000,21.07,1
390308427,21759.159176,1777900590.757951,-274,-1735,-1032,-2,-1,0,-0.133789,-0.847168,-0.503906,-0.122070,-0.061035,0.000000,21.15,0
390309440,21759.159186,1777900590.758965,-272,-1736,-1033,-2,0,0,-0.132812,-0.847656,-0.504395,-0.122070,0.000000,0.000000,21.17,0
390310452,21759.167231,1777900590.759955,-271,-1731,-1032,-2,-1,0,-0.132324,-0.845215,-0.503906,-0.122070,-0.061035,0.000000,21.23,0
390311463,21759.167253,1777900590.760967,-270,-1731,-1028,-3,-1,0,-0.131836,-0.845215,-0.501953,-0.183105,-0.061035,0.000000,21.18,0
390312477,21759.167262,1777900590.761982,-272,-1734,-1027,-3,-1,-1,-0.132812,-0.846680,-0.501465,-0.183105,-0.061035,-0.061035,21.04,0
390313488,21759.167271,1777900590.762994,-273,-1733,-1030,-2,-1,-2,-0.133301,-0.846191,-0.502930,-0.122070,-0.061035,-0.122070,21.07,0
390314500,21759.167280,1777900590.764007,-270,-1731,-1033,-2,-1,-1,-0.131836,-0.845215,-0.504395,-0.122070,-0.061035,-0.061035,21.07,0
390315513,21759.167288,1777900590.765022,-270,-1734,-1034,-2,-1,0,-0.131836,-0.846680,-0.504883,-0.122070,-0.061035,0.000000,21.23,0
390316525,21759.167297,1777900590.766035,-273,-1735,-1032,-2,-1,0,-0.133301,-0.847168,-0.503906,-0.122070,-0.061035,0.000000,21.09,0
390317538,21759.167305,1777900590.767049,-274,-1735,-1031,-2,-1,-1,-0.133789,-0.847168,-0.503418,-0.122070,-0.061035,-0.061035,21.17,0
390318550,21759.175310,1777900590.768039,-271,-1733,-1031,-3,0,-2,-0.132324,-0.846191,-0.503418,-0.183105,0.000000,-0.122070,21.17,1
390319563,21759.175334,1777900590.769053,-268,-1732,-1030,-3,0,-1,-0.130859,-0.845703,-0.502930,-0.183105,0.000000,-0.061035,21.07,0
390320575,21759.175345,1777900590.770066,-274,-1734,-1032,-3,-1,0,-0.133789,-0.846680,-0.503906,-0.183105,-0.061035,0.000000,21.04,0
390321588,21759.175356,1777900590.771080,-276,-1735,-1034,-2,-1,1,-0.134766,-0.847168,-0.504883,-0.122070,-0.061035,0.061035,21.15,0
390322599,21759.175367,1777900590.772093,-271,-1737,-1036,-3,-1,0,-0.132324,-0.848145,-0.505859,-0.183105,-0.061035,0.000000,20.92,0
390323610,21759.175377,1777900590.773105,-272,-1737,-1034,-4,-1,0,-0.132812,-0.848145,-0.504883,-0.244141,-0.061035,0.000000,21.07,0
390324624,21759.175388,1777900590.774120,-274,-1734,-1033,-4,0,-1,-0.133789,-0.846680,-0.504395,-0.244141,0.000000,-0.061035,21.09,0
390325636,21759.175399,1777900590.775133,-271,-1733,-1036,-3,0,-1,-0.132324,-0.846191,-0.505859,-0.183105,0.000000,-0.061035,21.15,0
390326647,21759.183397,1777900590.776145,-271,-1732,-1034,-3,-1,0,-0.132324,-0.845703,-0.504883,-0.183105,-0.061035,0.000000,21.11,0
390327661,21759.183422,1777900590.777160,-271,-1734,-1029,-3,-1,-1,-0.132324,-0.846680,-0.502441,-0.183105,-0.061035,-0.061035,21.14,0
390328672,21759.183430,1777900590.778172,-270,-1734,-1029,-3,-1,-1,-0.131836,-0.846680,-0.502441,-0.183105,-0.061035,-0.061035,21.14,0
390329683,21759.183437,1777900590.779162,-268,-1733,-1034,-3,-1,-1,-0.130859,-0.846191,-0.504883,-0.183105,-0.061035,-0.061035,21.17,1
390330697,21759.183444,1777900590.780177,-268,-1734,-1033,-3,-1,-1,-0.130859,-0.846680,-0.504395,-0.183105,-0.061035,-0.061035,21.14,0
390331707,21759.183451,1777900590.781188,-273,-1734,-1026,-3,-2,-2,-0.133301,-0.846680,-0.500977,-0.183105,-0.122070,-0.122070,21.15,0
390332721,21759.183458,1777900590.782203,-272,-1734,-1026,-3,-2,-2,-0.132812,-0.846680,-0.500977,-0.183105,-0.122070,-0.122070,21.18,0
390333732,21759.183465,1777900590.783215,-269,-1735,-1030,-3,-1,-1,-0.131348,-0.847168,-0.502930,-0.183105,-0.061035,-0.061035,21.12,0
390334747,21759.191474,1777900590.784231,-270,-1734,-1031,-3,-1,-2,-0.131836,-0.846680,-0.503418,-0.183105,-0.061035,-0.122070,21.07,0
390335758,21759.191491,1777900590.785243,-272,-1732,-1034,-4,-1,-2,-0.132812,-0.845703,-0.504883,-0.244141,-0.061035,-0.122070,21.14,0
390336771,21759.191499,1777900590.786257,-275,-1733,-1031,-3,-1,-1,-0.134277,-0.846191,-0.503418,-0.183105,-0.061035,-0.061035,21.15,0
390337784,21759.191506,1777900590.787271,-273,-1737,-1030,-3,-1,0,-0.133301,-0.848145,-0.502930,-0.183105,-0.061035,0.000000,21.14,0
390338793,21759.191513,1777900590.788281,-272,-1738,-1034,-4,-1,-1,-0.132812,-0.848633,-0.504883,-0.244141,-0.061035,-0.061035,21.20,0
390339807,21759.191520,1777900590.789296,-276,-1736,-1034,-3,-2,-1,-0.134766,-0.847656,-0.504883,-0.183105,-0.122070,-0.061035,21.07,0
390340818,21759.191526,1777900590.790308,-274,-1735,-1031,-2,-2,0,-0.133789,-0.847168,-0.503418,-0.122070,-0.122070,0.000000,21.23,1
390341830,21759.191534,1777900590.791321,-271,-1736,-1032,-3,-1,0,-0.132324,-0.847656,-0.503906,-0.183105,-0.061035,0.000000,21.06,0
390342842,21759.199606,1777900590.792313,-270,-1734,-1033,-3,-1,0,-0.131836,-0.846680,-0.504395,-0.183105,-0.061035,0.000000,21.11,0
390343856,21759.199626,1777900590.793328,-271,-1731,-1030,-2,-2,0,-0.132324,-0.845215,-0.502930,-0.122070,-0.122070,0.000000,21.11,0
390344868,21759.199636,1777900590.794341,-272,-1735,-1028,-2,-2,0,-0.132812,-0.847168,-0.501953,-0.122070,-0.122070,0.000000,21.14,0
390345879,21759.199643,1777900590.795352,-273,-1737,-1032,-3,-2,-1,-0.133301,-0.848145,-0.503906,-0.183105,-0.122070,-0.061035,21.29,0
390346894,21759.199650,1777900590.796369,-273,-1734,-1034,-3,-2,-1,-0.133301,-0.846680,-0.504883,-0.183105,-0.122070,-0.061035,21.23,0
390347904,21759.199657,1777900590.797379,-271,-1733,-1032,-3,-1,0,-0.132324,-0.846191,-0.503906,-0.183105,-0.061035,0.000000,21.23,0
390348918,21759.199664,1777900590.798394,-270,-1735,-1032,-3,0,0,-0.131836,-0.847168,-0.503906,-0.183105,0.000000,0.000000,21.12,0
390349930,21759.199670,1777900590.799407,-273,-1736,-1034,-3,0,0,-0.133301,-0.847656,-0.504883,-0.183105,0.000000,0.000000,21.20,0
390350940,21759.207689,1777900590.800418,-274,-1732,-1031,-2,-1,-1,-0.133789,-0.845703,-0.503418,-0.122070,-0.061035,-0.061035,21.12,0
390351953,21759.207710,1777900590.801411,-271,-1731,-1027,-3,-1,-1,-0.132324,-0.845215,-0.501465,-0.183105,-0.061035,-0.061035,21.20,1
390352965,21759.207725,1777900590.802424,-271,-1732,-1030,-3,-2,-1,-0.132324,-0.845703,-0.502930,-0.183105,-0.122070,-0.061035,21.03,0
390353979,21759.207738,1777900590.803439,-270,-1732,-1031,-2,-2,-1,-0.131836,-0.845703,-0.503418,-0.122070,-0.122070,-0.061035,21.29,0
390354991,21759.207750,1777900590.804451,-270,-1735,-1031,-2,-1,-2,-0.131836,-0.847168,-0.503418,-0.122070,-0.061035,-0.122070,21.14,0
390356004,21759.207760,1777900590.805465,-271,-1733,-1034,-3,-1,-2,-0.132324,-0.846191,-0.504883,-0.183105,-0.061035,-0.122070,21.15,0
390357015,21759.207770,1777900590.806477,-272,-1731,-1032,-3,-3,-1,-0.132812,-0.845215,-0.503906,-0.183105,-0.183105,-0.061035,21.07,0
390358029,21759.207781,1777900590.807492,-273,-1734,-1032,-3,-2,-1,-0.133301,-0.846680,-0.503906,-0.183105,-0.122070,-0.061035,21.04,0
390359040,21759.215783,1777900590.808504,-271,-1735,-1035,-3,-1,-1,-0.132324,-0.847168,-0.505371,-0.183105,-0.061035,-0.061035,21.14,0
390360051,21759.215806,1777900590.809516,-270,-1733,-1034,-3,-1,0,-0.131836,-0.846191,-0.504883,-0.183105,-0.061035,0.000000,21.17,0
390361063,21759.215814,1777900590.810529,-271,-1734,-1034,-2,-2,0,-0.132324,-0.846680,-0.504883,-0.122070,-0.122070,0.000000,21.14,0
390362075,21759.215821,1777900590.811542,-269,-1736,-1034,-2,-1,-1,-0.131348,-0.847656,-0.504883,-0.122070,-0.061035,-0.061035,21.14,0
390363097,21759.215828,1777900590.812565,-269,-1733,-1032,-3,-1,-1,-0.131348,-0.846191,-0.503906,-0.183105,-0.061035,-0.061035,21.09,1
390364100,21759.215836,1777900590.813569,-271,-1731,-1033,-4,-1,0,-0.132324,-0.845215,-0.504395,-0.244141,-0.061035,0.000000,21.26,0
390365112,21759.215852,1777900590.814581,-272,-1734,-1035,-3,-1,0,-0.132812,-0.846680,-0.505371,-0.183105,-0.061035,0.000000,21.29,0
390366126,21759.215859,1777900590.815596,-274,-1737,-1036,-3,0,-1,-0.133789,-0.848145,-0.505859,-0.183105,0.000000,-0.061035,21.20,0
390367138,21759.223896,1777900590.816589,-276,-1737,-1034,-3,-1,-2,-0.134766,-0.848145,-0.504883,-0.183105,-0.061035,-0.122070,21.20,0
390368151,21759.223917,1777900590.817603,-275,-1736,-1029,-3,-2,-1,-0.134277,-0.847656,-0.502441,-0.183105,-0.122070,-0.061035,21.20,0
390369162,21759.223927,1777900590.818615,-272,-1735,-1029,-2,-2,-1,-0.132812,-0.847168,-0.502441,-0.122070,-0.122070,-0.061035,21.32,0
390370176,21759.223936,1777900590.819630,-269,-1734,-1031,-2,-2,-1,-0.131348,-0.846680,-0.503418,-0.122070,-0.122070,-0.061035,21.24,0
390371187,21759.223945,1777900590.820642,-270,-1734,-1030,-2,-2,-1,-0.131836,-0.846680,-0.502930,-0.122070,-0.122070,-0.061035,20.98,0
390372198,21759.223953,1777900590.821653,-272,-1735,-1028,-2,-2,0,-0.132812,-0.847168,-0.501953,-0.122070,-0.122070,0.000000,21.06,0
390373212,21759.223962,1777900590.822668,-270,-1734,-1030,-3,-1,0,-0.131836,-0.846680,-0.502930,-0.183105,-0.061035,0.000000,21.17,0
390374225,21759.223970,1777900590.823682,-271,-1734,-1033,-3,-1,0,-0.132324,-0.846680,-0.504395,-0.183105,-0.061035,0.000000,21.07,1
390375235,21759.231995,1777900590.824673,-273,-1733,-1033,-3,-1,0,-0.133301,-0.846191,-0.504395,-0.183105,-0.061035,0.000000,21.23,0
390376247,21759.232018,1777900590.825686,-271,-1732,-1032,-3,0,0,-0.132324,-0.845703,-0.503906,-0.183105,0.000000,0.000000,21.18,0
390377260,21759.232026,1777900590.826699,-270,-1731,-1030,-2,0,0,-0.131836,-0.845215,-0.502930,-0.122070,0.000000,0.000000,21.15,0
390378272,21759.232034,1777900590.827712,-272,-1729,-1029,-2,-1,-1,-0.132812,-0.844238,-0.502441,-0.122070,-0.061035,-0.061035,21.11,0
390379286,21759.232041,1777900590.828727,-271,-1732,-1030,-2,-2,-1,-0.132324,-0.845703,-0.502930,-0.122070,-0.122070,-0.061035,21.14,0
390380298,21759.232048,1777900590.829740,-272,-1734,-1032,-3,-2,-1,-0.132812,-0.846680,-0.503906,-0.183105,-0.122070,-0.061035,21.18,0
390381310,21759.232055,1777900590.830753,-274,-1731,-1032,-4,-2,-1,-0.133789,-0.845215,-0.503906,-0.244141,-0.122070,-0.061035,21.20,0
390382322,21759.232062,1777900590.831765,-273,-1730,-1030,-3,-1,-1,-0.133301,-0.844727,-0.502930,-0.183105,-0.061035,-0.061035,21.17,0
390383333,21759.240095,1777900590.832777,-270,-1732,-1028,-1,-1,-1,-0.131836,-0.845703,-0.501953,-0.061035,-0.061035,-0.061035,21.07,0
390384347,21759.240121,1777900590.833792,-270,-1734,-1030,-1,-1,-1,-0.131836,-0.846680,-0.502930,-0.061035,-0.061035,-0.061035,20.95,0
390385357,21759.240129,1777900590.834785,-274,-1737,-1034,-3,-2,0,-0.133789,-0.848145,-0.504883,-0.183105,-0.122070,0.000000,21.09,1
390386370,21759.240137,1777900590.835799,-275,-1737,-1033,-3,-1,1,-0.134277,-0.848145,-0.504395,-0.183105,-0.061035,0.061035,21.17,0
390387384,21759.240144,1777900590.836813,-272,-1736,-1031,-2,-1,0,-0.132812,-0.847656,-0.503418,-0.122070,-0.061035,0.000000,21.07,0
390388396,21759.240194,1777900590.837826,-269,-1736,-1032,-2,-2,-2,-0.131348,-0.847656,-0.503906,-0.122070,-0.122070,-0.122070,21.06,0
390389408,21759.240201,1777900590.838839,-268,-1734,-1032,-3,-2,-2,-0.130859,-0.846680,-0.503906,-0.183105,-0.122070,-0.122070,21.15,0
390390421,21759.240208,1777900590.839853,-271,-1733,-1027,-3,-1,0,-0.132324,-0.846191,-0.501465,-0.183105,-0.061035,0.000000,21.12,0
390391431,21759.248162,1777900590.840863,-274,-1734,-1027,-2,-1,0,-0.133789,-0.846680,-0.501465,-0.122070,-0.061035,0.000000,21.07,0
390392444,21759.248181,1777900590.841877,-273,-1735,-1031,-2,-1,-1,-0.133301,-0.847168,-0.503418,-0.122070,-0.061035,-0.061035,21.07,0
390393456,21759.248188,1777900590.842890,-270,-1736,-1031,-2,-2,-1,-0.131836,-0.847656,-0.503418,-0.122070,-0.122070,-0.061035,21.06,0
390394470,21759.248195,1777900590.843905,-271,-1734,-1028,-2,-1,0,-0.132324,-0.846680,-0.501953,-0.122070,-0.061035,0.000000,21.15,0
390395481,21759.248202,1777900590.844917,-272,-1731,-1028,-2,-1,1,-0.132812,-0.845215,-0.501953,-0.122070,-0.061035,0.061035,21.14,0
390396494,21759.248209,1777900590.845930,-269,-1730,-1031,-2,-1,0,-0.131348,-0.844727,-0.503418,-0.122070,-0.061035,0.000000,21.21,1
390397504,21759.248216,1777900590.846941,-267,-1732,-1032,-3,-1,-1,-0.130371,-0.845703,-0.503906,-0.183105,-0.061035,-0.061035,21.11,0
390398517,21759.248223,1777900590.847955,-270,-1736,-1030,-3,-1,-1,-0.131836,-0.847656,-0.502930,-0.183105,-0.061035,-0.061035,21.30,0
390399529,21759.256245,1777900590.848949,-274,-1737,-1030,-3,-1,-1,-0.133789,-0.848145,-0.502930,-0.183105,-0.061035,-0.061035,21.26,0
390400541,21759.256282,1777900590.849962,-273,-1735,-1031,-2,-2,-2,-0.133301,-0.847168,-0.503418,-0.122070,-0.122070,-0.122070,21.04,0
390401554,21759.256289,1777900590.850976,-273,-1735,-1033,-2,-2,-1,-0.133301,-0.847168,-0.504395,-0.122070,-0.122070,-0.061035,21.23,0
390402566,21759.256297,1777900590.851988,-271,-1734,-1035,-3,-1,-1,-0.132324,-0.846680,-0.505371,-0.183105,-0.061035,-0.061035,21.24,0
390403579,21759.256304,1777900590.853002,-270,-1734,-1033,-3,-2,-1,-0.131836,-0.846680,-0.504395,-0.183105,-0.122070,-0.061035,21.07,0
390404590,21759.256310,1777900590.854014,-271,-1734,-1031,-2,-2,-1,-0.132324,-0.846680,-0.503418,-0.122070,-0.122070,-0.061035,21.20,0
390405604,21759.256317,1777900590.855029,-268,-1734,-1034,-2,-1,0,-0.130859,-0.846680,-0.504883,-0.122070,-0.061035,0.000000,21.14,0
390406616,21759.256324,1777900590.856041,-267,-1734,-1032,-3,0,0,-0.130371,-0.846680,-0.503906,-0.183105,0.000000,0.000000,21.15,0
390407629,21759.264381,1777900590.857037,-269,-1732,-1031,-3,-2,-1,-0.131348,-0.845703,-0.503418,-0.183105,-0.122070,-0.061035,21.17,1
390408639,21759.264405,1777900590.858047,-270,-1731,-1033,-3,-3,-2,-0.131836,-0.845215,-0.504395,-0.183105,-0.183105,-0.122070,21.01,0
390409652,21759.264416,1777900590.859061,-271,-1732,-1034,-3,-2,-1,-0.132324,-0.845703,-0.504883,-0.183105,-0.122070,-0.061035,21.11,0
390410663,21759.264427,1777900590.860073,-271,-1733,-1035,-3,0,-1,-0.132324,-0.846191,-0.505371,-0.183105,0.000000,-0.061035,21.14,0
390411676,21759.264437,1777900590.861087,-271,-1734,-1031,-2,0,-1,-0.132324,-0.846680,-0.503418,-0.122070,0.000000,-0.061035,21.07,0
390412688,21759.264449,1777900590.862099,-272,-1733,-1029,-2,-1,-1,-0.132812,-0.846191,-0.502441,-0.122070,-0.061035,-0.061035,21.11,0
390413702,21759.264458,1777900590.863114,-270,-1732,-1033,-3,-2,0,-0.131836,-0.845703,-0.504395,-0.183105,-0.122070,0.000000,21.21,0
390414713,21759.264466,1777900590.864125,-269,-1732,-1034,-3,-1,0,-0.131348,-0.845703,-0.504883,-0.183105,-0.061035,0.000000,21.15,0
390415725,21759.272460,1777900590.865138,-272,-1734,-1034,-3,-1,-1,-0.132812,-0.846680,-0.504883,-0.183105,-0.061035,-0.061035,21.18,0
390416739,21759.272479,1777900590.866153,-272,-1734,-1034,-3,-1,-1,-0.132812,-0.846680,-0.504883,-0.183105,-0.061035,-0.061035,21.07,0
390417750,21759.272488,1777900590.867165,-270,-1732,-1032,-4,-2,-1,-0.131836,-0.845703,-0.503906,-0.244141,-0.122070,-0.061035,21.07,0
390418762,21759.272495,1777900590.868160,-272,-1734,-1034,-4,-2,-1,-0.132812,-0.846680,-0.504883,-0.244141,-0.122070,-0.061035,21.14,1
390419776,21759.272503,1777900590.869174,-272,-1734,-1035,-3,-1,-1,-0.132812,-0.846680,-0.505371,-0.183105,-0.061035,-0.061035,21.24,0
390420787,21759.272510,1777900590.870186,-271,-1734,-1033,-3,-1,-1,-0.132324,-0.846680,-0.504395,-0.183105,-0.061035,-0.061035,21.11,0
390421800,21759.272517,1777900590.871200,-272,-1732,-1032,-2,-2,-1,-0.132812,-0.845703,-0.503906,-0.122070,-0.122070,-0.061035,21.18,0
390422811,21759.272524,1777900590.872211,-271,-1733,-1033,-2,-2,-1,-0.132324,-0.846191,-0.504395,-0.122070,-0.122070,-0.061035,21.11,0
390423824,21759.280556,1777900590.873225,-271,-1736,-1031,-2,-1,0,-0.132324,-0.847656,-0.503418,-0.122070,-0.061035,0.000000,21.07,0
390424835,21759.280578,1777900590.874237,-273,-1737,-1033,-3,-1,0,-0.133301,-0.848145,-0.504395,-0.183105,-0.061035,0.000000,21.07,0
390425849,21759.280591,1777900590.875252,-273,-1734,-1036,-2,-1,-1,-0.133301,-0.846680,-0.505859,-0.122070,-0.061035,-0.061035,21.01,0
390426861,21759.280604,1777900590.876264,-272,-1734,-1032,-1,-2,-1,-0.132812,-0.846680,-0.503906,-0.061035,-0.122070,-0.061035,21.18,0
390427873,21759.280616,1777900590.877277,-275,-1734,-1032,-2,-2,0,-0.134277,-0.846680,-0.503906,-0.122070,-0.122070,0.000000,21.30,0
390428884,21759.280627,1777900590.878289,-275,-1733,-1034,-2,-1,0,-0.134277,-0.846191,-0.504883,-0.122070,-0.061035,0.000000,21.00,0
390429898,21759.280638,1777900590.879303,-271,-1733,-1033,-2,-1,0,-0.132324,-0.846191,-0.504395,-0.122070,-0.061035,0.000000,20.98,1
390430911,21759.280650,1777900590.880317,-270,-1732,-1033,-3,-1,-1,-0.131836,-0.845703,-0.504395,-0.183105,-0.061035,-0.061035,21.20,0
390431922,21759.288657,1777900590.881311,-268,-1731,-1031,-3,-1,-1,-0.130859,-0.845215,-0.503418,-0.183105,-0.061035,-0.061035,20.95,0
390432934,21759.288678,1777900590.882324,-273,-1732,-1031,-2,-1,-1,-0.133301,-0.845703,-0.503418,-0.122070,-0.061035,-0.061035,21.07,0
390433947,21759.288686,1777900590.883338,-274,-1734,-1034,-2,-1,-1,-0.133789,-0.846680,-0.504883,-0.122070,-0.061035,-0.061035,21.17,0
390434960,21759.288694,1777900590.884351,-271,-1736,-1034,-2,-1,-1,-0.132324,-0.847656,-0.504883,-0.122070,-0.061035,-0.061035,21.27,0
390435971,21759.288700,1777900590.885363,-273,-1738,-1033,-3,-1,-2,-0.133301,-0.848633,-0.504395,-0.183105,-0.061035,-0.122070,21.09,0
390436985,21759.288708,1777900590.886378,-275,-1736,-1034,-3,-1,-2,-0.134277,-0.847656,-0.504883,-0.183105,-0.061035,-0.122070,21.12,0
390437997,21759.288714,1777900590.887390,-271,-1732,-1037,-3,-1,-2,-0.132324,-0.845703,-0.506348,-0.183105,-0.061035,-0.122070,21.29,0
390439008,21759.288721,1777900590.888402,-269,-1730,-1035,-3,-2,-1,-0.131348,-0.844727,-0.505371,-0.183105,-0.122070,-0.061035,21.30,0
390440021,21759.296756,1777900590.889416,-268,-1728,-1032,-3,-2,-1,-0.130859,-0.843750,-0.503906,-0.183105,-0.122070,-0.061035,21.24,0
390441034,21759.296780,1777900590.890413,-269,-1730,-1031,-2,-2,-1,-0.131348,-0.844727,-0.503418,-0.122070,-0.122070,-0.061035,21.26,1
390442044,21759.296793,1777900590.891423,-269,-1731,-1027,-2,-2,-2,-0.131348,-0.845215,-0.501465,-0.122070,-0.122070,-0.122070,21.17,0
390443057,21759.296803,1777900590.892437,-270,-1730,-1028,-3,-2,-2,-0.131836,-0.844727,-0.501953,-0.183105,-0.122070,-0.122070,21.14,0
390444070,21759.296815,1777900590.893450,-271,-1732,-1034,-2,-1,-1,-0.132324,-0.845703,-0.504883,-0.122070,-0.061035,-0.061035,21.14,0
390445082,21759.296825,1777900590.894463,-271,-1733,-1036,-2,0,-1,-0.132324,-0.846191,-0.505859,-0.122070,0.000000,-0.061035,21.17,0
390446100,21759.296836,1777900590.895482,-269,-1732,-1034,-2,-1,-1,-0.131348,-0.845703,-0.504883,-0.122070,-0.061035,-0.061035,21.15,0
390447106,21759.296847,1777900590.896488,-268,-1733,-1033,-2,-1,0,-0.130859,-0.846191,-0.504395,-0.122070,-0.061035,0.000000,21.23,0
390448119,21759.304848,1777900590.897502,-269,-1732,-1031,-2,-1,0,-0.131348,-0.845703,-0.503418,-0.122070,-0.061035,0.000000,21.15,0
390449130,21759.304860,1777900590.898513,-272,-1733,-1031,-3,-1,0,-0.132812,-0.846191,-0.503418,-0.183105,-0.061035,0.000000,21.24,0
390450142,21759.304922,1777900590.899526,-273,-1734,-1032,-3,-1,-1,-0.133301,-0.846680,-0.503906,-0.183105,-0.061035,-0.061035,21.12,0
390451156,21759.304930,1777900590.900541,-270,-1734,-1029,-2,-2,-1,-0.131836,-0.846680,-0.502441,-0.122070,-0.122070,-0.061035,21.26,0
390452166,21759.304937,1777900590.901551,-272,-1735,-1031,-2,-3,-1,-0.132812,-0.847168,-0.503418,-0.122070,-0.183105,-0.061035,21.14,1
390453178,21759.304945,1777900590.902564,-273,-1734,-1035,-3,-2,-1,-0.133301,-0.846680,-0.505371,-0.183105,-0.122070,-0.061035,21.21,0
390454190,21759.304952,1777900590.903576,-273,-1736,-1032,-4,-2,-1,-0.133301,-0.847656,-0.503906,-0.244141,-0.122070,-0.061035,21.14,0
390455204,21759.304959,1777900590.904591,-271,-1739,-1030,-4,-2,-1,-0.132324,-0.849121,-0.502930,-0.244141,-0.122070,-0.061035,21.17,0
390456217,21759.312981,1777900590.905588,-270,-1734,-1033,-4,-1,-1,-0.131836,-0.846680,-0.504395,-0.244141,-0.061035,-0.061035,21.23,0
390457229,21759.312999,1777900590.906601,-273,-1734,-1033,-3,0,-2,-0.133301,-0.846680,-0.504395,-0.183105,0.000000,-0.122070,21.06,0
390458242,21759.313010,1777900590.907614,-274,-1737,-1032,-2,-1,0,-0.133789,-0.848145,-0.503906,-0.122070,-0.061035,0.000000,21.09,0
390459254,21759.313018,1777900590.908627,-269,-1735,-1030,-2,-1,0,-0.131348,-0.847168,-0.502930,-0.122070,-0.061035,0.000000,21.23,0
390460264,21759.313025,1777900590.909637,-267,-1731,-1029,-3,0,0,-0.130371,-0.845215,-0.502441,-0.183105,0.000000,0.000000,21.23,0
390461278,21759.313032,1777900590.910652,-270,-1731,-1030,-3,-1,-1,-0.131836,-0.845215,-0.502930,-0.183105,-0.061035,-0.061035,21.26,0
390462289,21759.313039,1777900590.911664,-272,-1735,-1032,-2,-2,-1,-0.132812,-0.847168,-0.503906,-0.122070,-0.122070,-0.061035,21.38,0
390463301,21759.313046,1777900590.912676,-273,-1735,-1032,-2,-2,-1,-0.133301,-0.847168,-0.503906,-0.122070,-0.122070,-0.061035,21.18,1
390464313,21759.321079,1777900590.913672,-272,-1733,-1029,-4,-1,-1,-0.132812,-0.846191,-0.502441,-0.244141,-0.061035,-0.061035,21.20,0
390465325,21759.321119,1777900590.914685,-271,-1733,-1029,-4,-1,0,-0.132324,-0.846191,-0.502441,-0.244141,-0.061035,0.000000,21.14,0
390466337,21759.321127,1777900590.915698,-273,-1734,-1031,-3,-1,0,-0.133301,-0.846680,-0.503418,-0.183105,-0.061035,0.000000,21.15,0
390467350,21759.321135,1777900590.916711,-272,-1735,-1031,-3,-1,-1,-0.132812,-0.847168,-0.503418,-0.183105,-0.061035,-0.061035,21.20,0
390468364,21759.321142,1777900590.917726,-268,-1734,-1031,-3,-1,-2,-0.130859,-0.846680,-0.503418,-0.183105,-0.061035,-0.122070,21.17,0
390469377,21759.321161,1777900590.918739,-269,-1734,-1031,-2,-1,-2,-0.131348,-0.846680,-0.503418,-0.122070,-0.061035,-0.122070,21.07,0
390470388,21759.321168,1777900590.919751,-270,-1734,-1033,-2,-2,-1,-0.131836,-0.846680,-0.504395,-0.122070,-0.122070,-0.061035,21.09,0
390471401,21759.321175,1777900590.920764,-269,-1735,-1032,-3,-2,0,-0.131348,-0.847168,-0.503906,-0.183105,-0.122070,0.000000,21.21,0
390472414,21759.329134,1777900590.921778,-270,-1734,-1029,-3,-1,-1,-0.131836,-0.846680,-0.502441,-0.183105,-0.061035,-0.061035,21.01,0
390473425,21759.329158,1777900590.922789,-273,-1733,-1028,-3,-1,-1,-0.133301,-0.846191,-0.501953,-0.183105,-0.061035,-0.061035,21.15,0
390474438,21759.329168,1777900590.923787,-272,-1733,-1029,-3,-1,0,-0.132812,-0.846191,-0.502441,-0.183105,-0.061035,0.000000,21.18,1
390475448,21759.329179,1777900590.924798,-271,-1734,-1033,-3,-1,0,-0.132324,-0.846680,-0.504395,-0.183105,-0.061035,0.000000,21.09,0
390476462,21759.329190,1777900590.925812,-269,-1736,-1036,-3,-2,-1,-0.131348,-0.847656,-0.505859,-0.183105,-0.122070,-0.061035,21.15,0
390477473,21759.329201,1777900590.926824,-270,-1735,-1033,-3,-1,0,-0.131836,-0.847168,-0.504395,-0.183105,-0.061035,0.000000,21.14,0
390478487,21759.329212,1777900590.927838,-273,-1732,-1031,-3,-1,0,-0.133301,-0.845703,-0.503418,-0.183105,-0.061035,0.000000,21.30,0
390479498,21759.329222,1777900590.928850,-271,-1735,-1034,-4,-2,-1,-0.132324,-0.847168,-0.504883,-0.244141,-0.122070,-0.061035,21.20,0
390480509,21759.337292,1777900590.929861,-269,-1736,-1036,-4,-3,-1,-0.131348,-0.847656,-0.505859,-0.244141,-0.183105,-0.061035,21.12,0
390481522,21759.337312,1777900590.930875,-268,-1735,-1032,-2,-2,0,-0.130859,-0.847168,-0.503906,-0.122070,-0.122070,0.000000,21.17,0
390482534,21759.337330,1777900590.931887,-268,-1735,-1030,-2,-1,-1,-0.130859,-0.847168,-0.502930,-0.122070,-0.061035,-0.061035,21.01,0
390483546,21759.337339,1777900590.932900,-270,-1735,-1032,-3,0,-2,-0.131836,-0.847168,-0.503906,-0.183105,0.000000,-0.122070,21.11,0
390484561,21759.337346,1777900590.933915,-274,-1734,-1033,-2,0,-2,-0.133789,-0.846680,-0.504395,-0.122070,0.000000,-0.122070,21.12,0
390485570,21759.337354,1777900590.934925,-273,-1734,-1032,-2,-1,-2,-0.133301,-0.846680,-0.503906,-0.122070,-0.061035,-0.122070,21.04,1
390486582,21759.337385,1777900590.935937,-272,-1734,-1030,-3,-1,-2,-0.132812,-0.846680,-0.502930,-0.183105,-0.061035,-0.122070,21.09,0
390487596,21759.337392,1777900590.936952,-272,-1733,-1027,-3,-1,-1,-0.132812,-0.846191,-0.501465,-0.183105,-0.061035,-0.061035,21.11,0
390488609,21759.345338,1777900590.937951,-271,-1732,-1030,-3,-1,-1,-0.132324,-0.845703,-0.502930,-0.183105,-0.061035,-0.061035,21.21,0
390489619,21759.345360,1777900590.938961,-269,-1732,-1032,-2,-2,0,-0.131348,-0.845703,-0.503906,-0.122070,-0.122070,0.000000,21.14,0
390490634,21759.345372,1777900590.939976,-269,-1735,-1028,-3,-2,-1,-0.131348,-0.847168,-0.501953,-0.183105,-0.122070,-0.061035,21.36,0
390491644,21759.345383,1777900590.940987,-268,-1737,-1026,-3,-2,-1,-0.130859,-0.848145,-0.500977,-0.183105,-0.122070,-0.061035,21.14,0
390492658,21759.345394,1777900590.942002,-269,-1735,-1030,-3,-3,-1,-0.131348,-0.847168,-0.502930,-0.183105,-0.183105,-0.061035,21.14,0
390493670,21759.345405,1777900590.943014,-272,-1733,-1035,-3,-2,0,-0.132812,-0.846191,-0.505371,-0.183105,-0.122070,0.000000,21.24,0
390494682,21759.345416,1777900590.944026,-274,-1734,-1034,-3,-1,-1,-0.133789,-0.846680,-0.504883,-0.183105,-0.061035,-0.061035,21.01,0
390495693,21759.345427,1777900590.945038,-271,-1734,-1032,-3,-1,-1,-0.132324,-0.846680,-0.503906,-0.183105,-0.061035,-0.061035,21.29,0
390496707,21759.353453,1777900590.946038,-269,-1732,-1033,-2,-1,-1,-0.131348,-0.845703,-0.504395,-0.122070,-0.061035,-0.061035,21.18,1
390497719,21759.353473,1777900590.947050,-268,-1733,-1033,-1,-2,-1,-0.130859,-0.846191,-0.504395,-0.061035,-0.122070,-0.061035,21.33,0
390498732,21759.353482,1777900590.948063,-269,-1734,-1033,-2,-2,-1,-0.131348,-0.846680,-0.504395,-0.122070,-0.122070,-0.061035,21.11,0
390499742,21759.353489,1777900590.949074,-270,-1732,-1033,-2,-1,-1,-0.131836,-0.845703,-0.504395,-0.122070,-0.061035,-0.061035,21.18,0
390500756,21759.353496,1777900590.950088,-269,-1731,-1031,-2,-2,-1,-0.131348,-0.845215,-0.503418,-0.122070,-0.122070,-0.061035,21.18,0
390501768,21759.353503,1777900590.951101,-270,-1733,-1033,-2,-1,-1,-0.131836,-0.846191,-0.504395,-0.122070,-0.061035,-0.061035,21.24,0
390502780,21759.353510,1777900590.952113,-273,-1734,-1037,-3,0,0,-0.133301,-0.846680,-0.506348,-0.183105,0.000000,0.000000,21.38,0
390503793,21759.353517,1777900590.953127,-272,-1734,-1033,-3,-1,-1,-0.132812,-0.846680,-0.504395,-0.183105,-0.061035,-0.061035,21.18,0
390504806,21759.361539,1777900590.954140,-273,-1733,-1031,-3,-2,-2,-0.133301,-0.846191,-0.503418,-0.183105,-0.122070,-0.122070,21.15,0
390505817,21759.361549,1777900590.955152,-275,-1731,-1034,-2,-2,-1,-0.134277,-0.845215,-0.504883,-0.122070,-0.122070,-0.061035,21.07,0
390506830,21759.361556,1777900590.956165,-272,-1734,-1035,-1,-1,0,-0.132812,-0.846680,-0.505371,-0.061035,-0.061035,0.000000,21.29,0
390507842,21759.361563,1777900590.957163,-270,-1738,-1032,-2,-1,0,-0.131836,-0.848633,-0.503906,-0.122070,-0.061035,0.000000,21.15,1
390508855,21759.361571,1777900590.958176,-270,-1739,-1033,-3,-3,0,-0.131836,-0.849121,-0.504395,-0.183105,-0.183105,0.000000,21.20,0
390509865,21759.361578,1777900590.959187,-271,-1734,-1035,-3,-3,0,-0.132324,-0.846680,-0.505371,-0.183105,-0.183105,0.000000,21.14,0
390510879,21759.361585,1777900590.960201,-271,-1731,-1031,-2,-1,0,-0.132324,-0.845215,-0.503418,-0.122070,-0.061035,0.000000,21.11,0
390511890,21759.361638,1777900590.961213,-271,-1733,-1025,-2,-1,-1,-0.132324,-0.846191,-0.500488,-0.122070,-0.061035,-0.061035,21.26,0
390512902,21759.369696,1777900590.962225,-270,-1734,-1027,-3,-1,-1,-0.131836,-0.846680,-0.501465,-0.183105,-0.061035,-0.061035,21.24,0
390513916,21759.369719,1777900590.963239,-268,-1733,-1031,-3,-2,-1,-0.130859,-0.846191,-0.503418,-0.183105,-0.122070,-0.061035,21.32,0
390514926,21759.369727,1777900590.964250,-268,-1735,-1034,-3,-3,-1,-0.130859,-0.847168,-0.504883,-0.183105,-0.183105,-0.061035,21.07,0
390515939,21759.369734,1777900590.965263,-270,-1737,-1034,-4,-2,-2,-0.131836,-0.848145,-0.504883,-0.244141,-0.122070,-0.122070,21.17,0
390516951,21759.369741,1777900590.966276,-270,-1733,-1028,-3,0,-2,-0.131836,-0.846191,-0.501953,-0.183105,0.000000,-0.122070,21.07,0
390517965,21759.369748,1777900590.967290,-270,-1733,-1026,-2,-1,-1,-0.131836,-0.846191,-0.500977,-0.122070,-0.061035,-0.061035,21.15,0
390518977,21759.369756,1777900590.968303,-269,-1736,-1028,-2,-1,-1,-0.131348,-0.847656,-0.501953,-0.122070,-0.061035,-0.061035,21.04,1
390519989,21759.369764,1777900590.969315,-270,-1734,-1028,-2,-1,-1,-0.131836,-0.846680,-0.501953,-0.122070,-0.061035,-0.061035,21.20,0
390521002,21759.377751,1777900590.970314,-271,-1730,-1031,-3,-1,-1,-0.132324,-0.844727,-0.503418,-0.183105,-0.061035,-0.061035,21.15,0
390522014,21759.377780,1777900590.971327,-272,-1730,-1034,-2,-2,-1,-0.132812,-0.844727,-0.504883,-0.122070,-0.122070,-0.061035,21.00,0
390523026,21759.377788,1777900590.972339,-272,-1733,-1032,-2,-2,-1,-0.132812,-0.846191,-0.503906,-0.122070,-0.122070,-0.061035,21.23,0
390524038,21759.377798,1777900590.973351,-270,-1734,-1029,-2,-2,-2,-0.131836,-0.846680,-0.502441,-0.122070,-0.122070,-0.122070,21.14,0
390525051,21759.377806,1777900590.974365,-268,-1734,-1030,-3,-2,-1,-0.130859,-0.846680,-0.502930,-0.183105,-0.122070,-0.061035,21.23,0
390526062,21759.377813,1777900590.975376,-271,-1735,-1034,-3,-1,-1,-0.132324,-0.847168,-0.504883,-0.183105,-0.061035,-0.061035,21.23,0
390527073,21759.377822,1777900590.976388,-272,-1734,-1032,-3,-2,-2,-0.132812,-0.846680,-0.503906,-0.183105,-0.122070,-0.122070,20.92,0
390528095,21759.377831,1777900590.977410,-269,-1734,-1029,-3,-2,-1,-0.131348,-0.846680,-0.502441,-0.183105,-0.122070,-0.061035,21.03,0
390529100,21759.385852,1777900590.978415,-268,-1735,-1032,-4,-2,0,-0.130859,-0.847168,-0.503906,-0.244141,-0.122070,0.000000,21.14,0
390530111,21759.385873,1777900590.979413,-270,-1735,-1033,-3,-1,-1,-0.131836,-0.847168,-0.504395,-0.183105,-0.061035,-0.061035,21.09,1
390531122,21759.385885,1777900590.980424,-270,-1733,-1032,-2,-1,-1,-0.131836,-0.846191,-0.503906,-0.122070,-0.061035,-0.061035,21.23,0
390532136,21759.385896,1777900590.981438,-270,-1734,-1033,-1,0,0,-0.131836,-0.846680,-0.504395,-0.061035,0.000000,0.000000,21.23,0
390533147,21759.385906,1777900590.982450,-270,-1735,-1031,-2,-1,0,-0.131836,-0.847168,-0.503418,-0.122070,-0.061035,0.000000,21.23,0
390534161,21759.385917,1777900590.983464,-271,-1734,-1028,-2,-2,-1,-0.132324,-0.846680,-0.501953,-0.122070,-0.122070,-0.061035,21.15,0
390535171,21759.385927,1777900590.984475,-274,-1733,-1029,-2,-1,-2,-0.133789,-0.846191,-0.502441,-0.122070,-0.061035,-0.122070,21.04,0
390536185,21759.385938,1777900590.985489,-273,-1733,-1030,-2,0,0,-0.133301,-0.846191,-0.502930,-0.122070,0.000000,0.000000,21.24,0
390537197,21759.395373,1777900590.986501,-271,-1735,-1030,-2,0,0,-0.132324,-0.847168,-0.502930,-0.122070,0.000000,0.000000,21.17,0
390538208,21759.395394,1777900590.987513,-272,-1738,-1030,-1,-1,-1,-0.132812,-0.848633,-0.502930,-0.061035,-0.061035,-0.061035,21.20,0
390539220,21759.395402,1777900590.988525,-271,-1735,-1030,-3,-1,-1,-0.132324,-0.847168,-0.502930,-0.183105,-0.061035,-0.061035,21.15,0
390540234,21759.395409,1777900590.989540,-270,-1730,-1031,-4,-1,-1,-0.131836,-0.844727,-0.503418,-0.244141,-0.061035,-0.061035,21.11,0
390541246,21759.395416,1777900590.990538,-270,-1732,-1032,-3,-1,-1,-0.131836,-0.845703,-0.503906,-0.183105,-0.061035,-0.061035,21.14,1
390542257,21759.395424,1777900590.991550,-269,-1736,-1034,-2,-1,-1,-0.131348,-0.847656,-0.504883,-0.122070,-0.061035,-0.061035,21.33,0
390543270,21759.395431,1777900590.992563,-270,-1734,-1033,-2,-1,-1,-0.131836,-0.846680,-0.504395,-0.122070,-0.061035,-0.061035,21.21,0
390544282,21759.395438,1777900590.993576,-272,-1732,-1033,-4,-1,0,-0.132812,-0.845703,-0.504395,-0.244141,-0.061035,0.000000,21.21,0
390545294,21759.402033,1777900590.994588,-269,-1734,-1031,-4,-2,0,-0.131348,-0.846680,-0.503418,-0.244141,-0.122070,0.000000,21.11,0
390546306,21759.402049,1777900590.995600,-266,-1735,-1027,-3,-2,0,-0.129883,-0.847168,-0.501465,-0.183105,-0.122070,0.000000,21.38,0
390547320,21759.402056,1777900590.996614,-270,-1735,-1026,-3,-1,0,-0.131836,-0.847168,-0.500977,-0.183105,-0.061035,0.000000,21.18,0
390548331,21759.402063,1777900590.997626,-274,-1735,-1027,-3,-1,-1,-0.133789,-0.847168,-0.501465,-0.183105,-0.061035,-0.061035,21.17,0
390549344,21759.402070,1777900590.998639,-272,-1735,-1027,-2,-1,-1,-0.132812,-0.847168,-0.501465,-0.122070,-0.061035,-0.061035,20.98,0
