esp_timestamp_us,host_timestamp_s,unified_time_s,accel_x_raw,accel_y_raw,accel_z_raw,gyro_x_raw,gyro_y_raw,gyro_z_raw,accel_x_g,accel_y_g,accel_z_g,gyro_x_dps,gyro_y_dps,gyro_z_dps,temperature_c,fsync_flag
869024312,22237.867979,1777901069.472339,-465,-1896,-590,-2,-1,-2,-0.227051,-0.925781,-0.288086,-0.122070,-0.061035,-0.122070,21.12,0
869025324,22237.868016,1777901069.473351,-467,-1892,-590,-3,-1,-2,-0.228027,-0.923828,-0.288086,-0.183105,-0.061035,-0.122070,21.29,0
869026335,22237.868024,1777901069.474362,-472,-1894,-591,-3,-1,-1,-0.230469,-0.924805,-0.288574,-0.183105,-0.061035,-0.061035,21.07,0
869027348,22237.868031,1777901069.475375,-473,-1895,-590,-3,-2,-1,-0.230957,-0.925293,-0.288086,-0.183105,-0.122070,-0.061035,21.12,0
869028361,22237.868037,1777901069.476388,-470,-1895,-589,-4,-2,-1,-0.229492,-0.925293,-0.287598,-0.244141,-0.122070,-0.061035,21.18,0
869029372,22237.868043,1777901069.477399,-468,-1897,-592,-4,-1,-1,-0.228516,-0.926270,-0.289062,-0.244141,-0.061035,-0.061035,21.11,1
869030385,22237.868050,1777901069.478412,-468,-1900,-593,-3,0,-1,-0.228516,-0.927734,-0.289551,-0.183105,0.000000,-0.061035,21.32,0
869031396,22237.868056,1777901069.479423,-469,-1898,-593,-3,-1,0,-0.229004,-0.926758,-0.289551,-0.183105,-0.061035,0.000000,21.35,0
869032410,22237.875995,1777901069.480437,-468,-1895,-592,-3,-2,0,-0.228516,-0.925293,-0.289062,-0.183105,-0.122070,0.000000,21.23,0
869033422,22237.876024,1777901069.481449,-466,-1896,-591,-4,-1,0,-0.227539,-0.925781,-0.288574,-0.244141,-0.061035,0.000000,21.32,0
869034435,22237.876034,1777901078.576721,-465,-1899,-592,-4,-1,0,-0.227051,-0.927246,-0.289062,-0.244141,-0.061035,0.000000,21.11,0
869035445,22237.876044,1777901077.024235,-468,-1899,-592,-3,-1,0,-0.228516,-0.927246,-0.289062,-0.183105,-0.061035,0.000000,21.29,0
869036459,22237.876053,1777901075.433831,-471,-1899,-588,-2,-2,0,-0.229980,-0.927246,-0.287109,-0.122070,-0.122070,0.000000,21.24,0
869037471,22237.876063,1777901073.877785,-468,-1899,-587,-2,-2,0,-0.228516,-0.927246,-0.286621,-0.122070,-0.122070,0.000000,21.20,0
869038483,22237.876073,1777901072.183115,-467,-1898,-588,-3,-2,-1,-0.228027,-0.926758,-0.287109,-0.183105,-0.122070,-0.061035,21.17,0
869039495,22237.876083,1777901070.591944,-468,-1896,-589,-3,-2,-1,-0.228516,-0.925781,-0.287598,-0.183105,-0.122070,-0.061035,21.21,0
869040506,22237.884086,1777901069.476797,-466,-1898,-593,-3,-2,-1,-0.227539,-0.926758,-0.289551,-0.183105,-0.122070,-0.061035,21.21,1
869041521,22237.884105,1777901069.477812,-466,-1900,-593,-3,-2,0,-0.227539,-0.927734,-0.289551,-0.183105,-0.122070,0.000000,21.42,0
869042532,22237.884115,1777901069.478823,-470,-1897,-590,-3,-2,1,-0.229492,-0.926270,-0.288086,-0.183105,-0.122070,0.061035,21.23,0
869043545,22237.884125,1777901069.479836,-471,-1896,-591,-4,-2,0,-0.229980,-0.925781,-0.288574,-0.244141,-0.122070,0.000000,21.30,0
869044558,22237.884134,1777901069.480850,-470,-1899,-591,-4,-2,0,-0.229492,-0.927246,-0.288574,-0.244141,-0.122070,0.000000,21.35,0
869045569,22237.884143,1777901069.481861,-471,-1898,-591,-3,-2,0,-0.229980,-0.926758,-0.288574,-0.183105,-0.122070,0.000000,21.35,0
869046581,22237.884153,1777901069.482873,-470,-1897,-592,-3,-1,0,-0.229492,-0.926270,-0.289062,-0.183105,-0.061035,0.000000,21.29,0
869047592,22237.884162,1777901069.483885,-469,-1899,-591,-3,0,0,-0.229004,-0.927246,-0.288574,-0.183105,0.000000,0.000000,21.17,0
869048604,22237.892192,1777901069.484897,-469,-1898,-592,-3,-2,0,-0.229004,-0.926758,-0.289062,-0.183105,-0.122070,0.000000,21.12,0
869049617,22237.892224,1777901069.485910,-470,-1897,-595,-3,-2,0,-0.229492,-0.926270,-0.290527,-0.183105,-0.122070,0.000000,21.33,0
869050629,22237.892234,1777901069.486922,-469,-1899,-593,-3,-1,-1,-0.229004,-0.927246,-0.289551,-0.183105,-0.061035,-0.061035,21.23,0
869051644,22237.892242,1777901069.487938,-469,-1897,-589,-3,-1,-1,-0.229004,-0.926270,-0.287598,-0.183105,-0.061035,-0.061035,21.12,1
869052656,22237.892252,1777901069.488950,-468,-1896,-589,-3,0,1,-0.228516,-0.925781,-0.287598,-0.183105,0.000000,0.061035,21.14,0
869053667,22237.892262,1777901069.489961,-466,-1898,-590,-3,-1,1,-0.227539,-0.926758,-0.288086,-0.183105,-0.061035,0.061035,21.21,0
869054678,22237.892271,1777901069.490973,-469,-1900,-589,-3,-1,0,-0.229004,-0.927734,-0.287598,-0.183105,-0.061035,0.000000,21.35,0
869055690,22237.892279,1777901069.491973,-469,-1898,-590,-3,-2,-1,-0.229004,-0.926758,-0.288086,-0.183105,-0.122070,-0.061035,21.01,0
869056703,22237.900333,1777901069.492986,-467,-1896,-591,-3,-1,-1,-0.228027,-0.925781,-0.288574,-0.183105,-0.061035,-0.061035,21.29,0
869057714,22237.900351,1777901069.493997,-469,-1898,-590,-3,-1,-1,-0.229004,-0.926758,-0.288086,-0.183105,-0.061035,-0.061035,21.15,0
869058729,22237.900361,1777901069.495012,-469,-1898,-591,-3,-1,-1,-0.229004,-0.926758,-0.288574,-0.183105,-0.061035,-0.061035,21.27,0
869059742,22237.900370,1777901069.496025,-469,-1894,-592,-2,-1,0,-0.229004,-0.924805,-0.289062,-0.122070,-0.061035,0.000000,21.14,0
869060753,22237.900381,1777901069.497036,-468,-1896,-588,-3,-1,0,-0.228516,-0.925781,-0.287109,-0.183105,-0.061035,0.000000,21.18,0
869061764,22237.900387,1777901069.498046,-466,-1898,-587,-3,-1,0,-0.227539,-0.926758,-0.286621,-0.183105,-0.061035,0.000000,21.21,0
869062777,22237.900394,1777901069.499059,-466,-1895,-591,-2,0,-1,-0.227539,-0.925293,-0.288574,-0.122070,0.000000,-0.061035,21.35,1
869063790,22237.900405,1777901069.500072,-466,-1893,-592,-3,0,-1,-0.227539,-0.924316,-0.289062,-0.183105,0.000000,-0.061035,21.11,0
869064800,22237.908401,1777901069.501066,-466,-1894,-590,-4,-1,0,-0.227539,-0.924805,-0.288086,-0.244141,-0.061035,0.000000,21.32,0
869065815,22237.908428,1777901069.502080,-466,-1893,-592,-3,-1,0,-0.227539,-0.924316,-0.289062,-0.183105,-0.061035,0.000000,21.15,0
869066826,22237.908438,1777901069.503091,-468,-1894,-594,-3,-1,0,-0.228516,-0.924805,-0.290039,-0.183105,-0.061035,0.000000,21.06,0
869067839,22237.908448,1777901069.504103,-469,-1896,-594,-3,-1,0,-0.229004,-0.925781,-0.290039,-0.183105,-0.061035,0.000000,21.26,0
869068851,22237.908457,1777901069.505114,-467,-1899,-596,-3,0,0,-0.228027,-0.927246,-0.291016,-0.183105,0.000000,0.000000,21.09,0
869069864,22237.908466,1777901069.506126,-465,-1899,-593,-3,0,0,-0.227051,-0.927246,-0.289551,-0.183105,0.000000,0.000000,21.30,0
869070875,22237.908476,1777901069.507137,-467,-1896,-588,-4,-1,0,-0.228027,-0.925781,-0.287109,-0.244141,-0.061035,0.000000,21.26,0
869071886,22237.908485,1777901069.508147,-467,-1895,-589,-3,-1,0,-0.228027,-0.925293,-0.287598,-0.183105,-0.061035,0.000000,21.20,0
869072901,22237.916543,1777901069.509161,-465,-1898,-592,-3,0,0,-0.227051,-0.926758,-0.289062,-0.183105,0.000000,0.000000,21.14,0
869073911,22237.916560,1777901069.510176,-468,-1901,-591,-3,-1,-1,-0.228516,-0.928223,-0.288574,-0.183105,-0.061035,-0.061035,21.33,1
869074923,22237.916571,1777901069.511188,-470,-1900,-592,-2,-1,-1,-0.229492,-0.927734,-0.289062,-0.122070,-0.061035,-0.061035,21.20,0
869075935,22237.916581,1777901069.512199,-468,-1896,-595,-3,-1,0,-0.228516,-0.925781,-0.290527,-0.183105,-0.061035,0.000000,21.27,0
869076949,22237.916590,1777901069.513212,-465,-1894,-594,-3,-2,0,-0.227051,-0.924805,-0.290039,-0.183105,-0.122070,0.000000,21.23,0
869077961,22237.916600,1777901069.514224,-465,-1893,-591,-3,-2,1,-0.227051,-0.924316,-0.288574,-0.183105,-0.122070,0.061035,21.23,0
869078972,22237.916609,1777901069.515234,-465,-1896,-591,-3,-1,0,-0.227051,-0.925781,-0.288574,-0.183105,-0.061035,0.000000,21.07,0
869079987,22237.916618,1777901069.516249,-467,-1897,-593,-4,-1,-1,-0.228027,-0.926270,-0.289551,-0.244141,-0.061035,-0.061035,21.17,0
869080997,22237.924717,1777901069.517258,-469,-1895,-594,-3,0,-1,-0.229004,-0.925293,-0.290039,-0.183105,0.000000,-0.061035,21.41,0
869082010,22237.924760,1777901069.518271,-469,-1895,-592,-2,0,-1,-0.229004,-0.925293,-0.289062,-0.122070,0.000000,-0.061035,21.26,0
869083023,22237.924767,1777901069.519283,-468,-1896,-591,-4,-1,-1,-0.228516,-0.925781,-0.288574,-0.244141,-0.061035,-0.061035,21.15,0
869084034,22237.924773,1777901069.520294,-470,-1897,-592,-5,-1,0,-0.229492,-0.926270,-0.289062,-0.305176,-0.061035,0.000000,21.23,0
869085047,22237.924780,1777901069.521306,-470,-1897,-592,-4,-1,0,-0.229492,-0.926270,-0.289062,-0.244141,-0.061035,0.000000,21.20,1
869086060,22237.924873,1777901069.522319,-468,-1895,-589,-3,-1,0,-0.228516,-0.925293,-0.287598,-0.183105,-0.061035,0.000000,21.33,0
869087072,22237.924881,1777901069.523330,-467,-1894,-587,-2,-1,1,-0.228027,-0.924805,-0.286621,-0.122070,-0.061035,0.061035,21.17,0
869088082,22237.924887,1777901069.524339,-467,-1894,-590,-3,-1,1,-0.228027,-0.924805,-0.288086,-0.183105,-0.061035,0.061035,21.18,0
869089099,22237.932664,1777901069.525336,-470,-1896,-592,-3,-1,0,-0.229492,-0.925781,-0.289062,-0.183105,-0.061035,0.000000,21.20,0
869090109,22237.932682,1777901069.526345,-472,-1896,-588,-3,0,-1,-0.230469,-0.925781,-0.287109,-0.183105,0.000000,-0.061035,21.15,0
869091120,22237.932689,1777901069.527355,-468,-1898,-586,-3,0,0,-0.228516,-0.926758,-0.286133,-0.183105,0.000000,0.000000,21.18,0
869092134,22237.932695,1777901069.528368,-464,-1899,-593,-2,0,-1,-0.226562,-0.927246,-0.289551,-0.122070,0.000000,-0.061035,21.30,0
869093146,22237.932702,1777901069.529379,-466,-1896,-597,-2,-1,-1,-0.227539,-0.925781,-0.291504,-0.122070,-0.061035,-0.061035,21.23,0
869094158,22237.932708,1777901069.530390,-467,-1897,-593,-3,-1,-1,-0.228027,-0.926270,-0.289551,-0.183105,-0.061035,-0.061035,21.14,0
869095170,22237.932714,1777901069.531400,-467,-1899,-591,-4,-1,0,-0.228027,-0.927246,-0.288574,-0.244141,-0.061035,0.000000,21.20,0
869096182,22237.932720,1777901069.532411,-466,-1898,-591,-3,-1,0,-0.227539,-0.926758,-0.288574,-0.183105,-0.061035,0.000000,20.98,1
869097194,22237.940796,1777901069.533433,-466,-1898,-592,-2,-1,0,-0.227539,-0.926758,-0.289062,-0.122070,-0.061035,0.000000,21.30,0
869098205,22237.940813,1777901069.534443,-470,-1898,-592,-4,-1,0,-0.229492,-0.926758,-0.289062,-0.244141,-0.061035,0.000000,21.17,0
869099219,22237.940823,1777901069.535456,-469,-1896,-592,-4,-1,0,-0.229004,-0.925781,-0.289062,-0.244141,-0.061035,0.000000,21.07,0
869100229,22237.940833,1777901069.536465,-467,-1897,-592,-3,-1,-1,-0.228027,-0.926270,-0.289062,-0.183105,-0.061035,-0.061035,21.14,0
869101242,22237.940843,1777901069.537477,-467,-1897,-591,-2,-1,0,-0.228027,-0.926270,-0.288574,-0.122070,-0.061035,0.000000,21.11,0
869102254,22237.940852,1777901069.538488,-467,-1895,-593,-3,0,0,-0.228027,-0.925293,-0.289551,-0.183105,0.000000,0.000000,21.23,0
869103268,22237.940861,1777901069.539501,-468,-1898,-595,-4,-1,0,-0.228516,-0.926758,-0.290527,-0.244141,-0.061035,0.000000,21.09,0
869104281,22237.940871,1777901069.540514,-468,-1900,-592,-4,-1,1,-0.228516,-0.927734,-0.289062,-0.244141,-0.061035,0.061035,21.11,0
869105293,22237.948877,1777901069.541525,-468,-1899,-587,-3,-1,1,-0.228516,-0.927246,-0.286621,-0.183105,-0.061035,0.061035,21.12,0
869106303,22237.948898,1777901069.542534,-468,-1900,-591,-3,0,0,-0.228516,-0.927734,-0.288574,-0.183105,0.000000,0.000000,21.11,0
869107315,22237.948905,1777901069.543548,-466,-1899,-589,-3,0,-1,-0.227539,-0.927246,-0.287598,-0.183105,0.000000,-0.061035,21.14,1
869108330,22237.948913,1777901069.544563,-464,-1895,-588,-3,-1,-1,-0.226562,-0.925293,-0.287109,-0.183105,-0.061035,-0.061035,21.18,0
869109341,22237.948919,1777901069.545573,-467,-1896,-592,-3,-1,0,-0.228027,-0.925781,-0.289062,-0.183105,-0.061035,0.000000,21.24,0
869110354,22237.948925,1777901069.546585,-469,-1897,-590,-3,-1,1,-0.229004,-0.926270,-0.288086,-0.183105,-0.061035,0.061035,21.48,0
869111366,22237.948931,1777901069.547596,-469,-1896,-591,-3,-2,0,-0.229004,-0.925781,-0.288574,-0.183105,-0.122070,0.000000,21.38,0
869112377,22237.948937,1777901069.548606,-469,-1896,-595,-4,-3,-2,-0.229004,-0.925781,-0.290527,-0.244141,-0.183105,-0.122070,21.15,0
869113389,22237.956992,1777901069.549617,-470,-1899,-597,-5,-2,-1,-0.229492,-0.927246,-0.291504,-0.305176,-0.122070,-0.061035,21.33,0
869114403,22237.957016,1777901069.550630,-467,-1899,-592,-4,-1,1,-0.228027,-0.927246,-0.289062,-0.244141,-0.061035,0.061035,21.26,0
869115415,22237.957023,1777901069.551641,-465,-1896,-587,-4,-1,0,-0.227051,-0.925781,-0.286621,-0.244141,-0.061035,0.000000,21.29,0
869116427,22237.957029,1777901069.552653,-467,-1894,-588,-4,-2,0,-0.228027,-0.924805,-0.287109,-0.244141,-0.122070,0.000000,21.23,0
869117438,22237.957036,1777901069.553663,-469,-1896,-591,-4,-2,0,-0.229004,-0.925781,-0.288574,-0.244141,-0.122070,0.000000,21.32,0
869118452,22237.957042,1777901069.554676,-468,-1899,-593,-3,-1,0,-0.228516,-0.927246,-0.289551,-0.183105,-0.061035,0.000000,21.24,1
869119464,22237.957048,1777901069.555687,-467,-1898,-591,-3,-1,0,-0.228027,-0.926758,-0.288574,-0.183105,-0.061035,0.000000,21.14,0
869120476,22237.957054,1777901069.556698,-467,-1898,-588,-2,-1,0,-0.228027,-0.926758,-0.287109,-0.122070,-0.061035,0.000000,21.26,0
869121488,22237.965054,1777901069.557710,-467,-1898,-590,-2,-1,0,-0.228027,-0.926758,-0.288086,-0.122070,-0.061035,0.000000,21.17,0
869122500,22237.965075,1777901069.558721,-469,-1897,-589,-3,-2,0,-0.229004,-0.926270,-0.287598,-0.183105,-0.122070,0.000000,21.39,0
869123513,22237.965087,1777901069.559733,-472,-1900,-590,-3,-1,0,-0.230469,-0.927734,-0.288086,-0.183105,-0.061035,0.000000,21.29,0
869124524,22237.965097,1777901069.560744,-471,-1899,-591,-3,-1,0,-0.229980,-0.927246,-0.288574,-0.183105,-0.061035,0.000000,21.35,0
869125537,22237.965109,1777901069.561756,-469,-1897,-590,-3,-2,0,-0.229004,-0.926270,-0.288086,-0.183105,-0.122070,0.000000,21.30,0
869126551,22237.965119,1777901069.562769,-467,-1898,-593,-3,-2,0,-0.228027,-0.926758,-0.289551,-0.183105,-0.122070,0.000000,21.14,0
869127561,22237.965131,1777901069.563778,-466,-1895,-594,-2,-1,0,-0.227539,-0.925293,-0.290039,-0.122070,-0.061035,0.000000,21.24,0
869128573,22237.965176,1777901069.564789,-468,-1893,-591,-3,-1,0,-0.228516,-0.924316,-0.288574,-0.183105,-0.061035,0.000000,21.14,0
869129587,22237.973176,1777901069.565805,-468,-1898,-590,-4,-1,0,-0.228516,-0.926758,-0.288086,-0.244141,-0.061035,0.000000,21.24,1
869130599,22237.973197,1777901069.566817,-466,-1900,-591,-3,-1,0,-0.227539,-0.927734,-0.288574,-0.183105,-0.061035,0.000000,21.35,0
869131612,22237.973207,1777901069.567829,-468,-1897,-595,-3,0,-1,-0.228516,-0.926270,-0.290527,-0.183105,0.000000,-0.061035,21.32,0
869132624,22237.973217,1777901069.568840,-470,-1896,-594,-4,-1,-1,-0.229492,-0.925781,-0.290039,-0.244141,-0.061035,-0.061035,21.17,0
869133636,22237.973226,1777901069.569851,-471,-1895,-591,-4,-2,-1,-0.229980,-0.925293,-0.288574,-0.244141,-0.122070,-0.061035,21.32,0
869134646,22237.973236,1777901069.570861,-470,-1896,-589,-3,-1,0,-0.229492,-0.925781,-0.287598,-0.183105,-0.061035,0.000000,21.17,0
869135661,22237.973245,1777901069.571875,-469,-1896,-588,-3,-1,0,-0.229004,-0.925781,-0.287109,-0.183105,-0.061035,0.000000,21.21,0
869136672,22237.973254,1777901069.572885,-469,-1896,-589,-3,0,0,-0.229004,-0.925781,-0.287598,-0.183105,0.000000,0.000000,21.20,0
869137684,22237.981555,1777901069.573896,-469,-1896,-591,-3,-1,0,-0.229004,-0.925781,-0.288574,-0.183105,-0.061035,0.000000,21.15,0
869138696,22237.981582,1777901069.574907,-470,-1897,-593,-3,-2,0,-0.229492,-0.926270,-0.289551,-0.183105,-0.122070,0.000000,21.26,0
869139707,22237.981589,1777901069.575917,-471,-1897,-593,-3,-2,0,-0.229980,-0.926270,-0.289551,-0.183105,-0.122070,0.000000,21.26,0
869140721,22237.981595,1777901069.576931,-469,-1896,-592,-2,-1,0,-0.229004,-0.925781,-0.289062,-0.122070,-0.061035,0.000000,21.35,1
869141732,22237.981603,1777901069.577941,-467,-1896,-590,-3,-1,-1,-0.228027,-0.925781,-0.288086,-0.183105,-0.061035,-0.061035,21.30,0
869142745,22237.981609,1777901069.578954,-467,-1895,-588,-4,-2,-1,-0.228027,-0.925293,-0.287109,-0.244141,-0.122070,-0.061035,21.14,0
869143758,22237.981615,1777901069.579966,-466,-1895,-589,-4,-2,0,-0.227539,-0.925293,-0.287598,-0.244141,-0.122070,0.000000,21.11,0
869144769,22237.981621,1777901069.580976,-467,-1895,-589,-3,-1,0,-0.228027,-0.925293,-0.287598,-0.183105,-0.061035,0.000000,21.15,0
869145781,22237.989349,1777901069.581987,-469,-1895,-591,-3,-2,0,-0.229004,-0.925293,-0.288574,-0.183105,-0.122070,0.000000,21.14,0
869146795,22237.989365,1777901069.583000,-467,-1898,-592,-3,-2,0,-0.228027,-0.926758,-0.289062,-0.183105,-0.122070,0.000000,21.09,0
869147806,22237.989372,1777901069.584011,-467,-1898,-587,-3,0,-1,-0.228027,-0.926758,-0.286621,-0.183105,0.000000,-0.061035,21.26,0
869148820,22237.989409,1777901069.585024,-467,-1897,-585,-3,0,0,-0.228027,-0.926270,-0.285645,-0.183105,0.000000,0.000000,21.32,0
869149832,22237.989416,1777901069.586035,-467,-1897,-589,-3,-1,1,-0.228027,-0.926270,-0.287598,-0.183105,-0.061035,0.061035,21.32,0
869150845,22237.989422,1777901069.587047,-470,-1896,-593,-2,-2,0,-0.229492,-0.925781,-0.289551,-0.122070,-0.122070,0.000000,21.24,0
869151855,22237.989428,1777901069.588056,-471,-1893,-591,-2,-2,-1,-0.229980,-0.924316,-0.288574,-0.122070,-0.122070,-0.061035,21.09,1
869152867,22237.989435,1777901069.589068,-467,-1891,-588,-3,-1,-1,-0.228027,-0.923340,-0.287109,-0.183105,-0.061035,-0.061035,21.07,0
869153880,22237.997620,1777901069.590091,-465,-1894,-589,-4,-1,-1,-0.227051,-0.924805,-0.287598,-0.244141,-0.061035,-0.061035,21.23,0
869154894,22237.997645,1777901069.591104,-466,-1897,-593,-4,-1,0,-0.227539,-0.926270,-0.289551,-0.244141,-0.061035,0.000000,21.27,0
869155906,22237.997652,1777901069.592115,-468,-1898,-592,-4,-1,0,-0.228516,-0.926758,-0.289062,-0.244141,-0.061035,0.000000,21.11,0
869156916,22237.997659,1777901069.593125,-470,-1898,-591,-4,0,-1,-0.229492,-0.926758,-0.288574,-0.244141,0.000000,-0.061035,21.17,0
869157930,22237.997665,1777901069.594138,-470,-1898,-590,-3,0,-1,-0.229492,-0.926758,-0.288086,-0.183105,0.000000,-0.061035,21.14,0
869158942,22237.997671,1777901069.595150,-466,-1900,-589,-3,-1,-1,-0.227539,-0.927734,-0.287598,-0.183105,-0.061035,-0.061035,21.12,0
869159954,22237.997677,1777901069.596161,-465,-1897,-592,-3,-1,-1,-0.227051,-0.926270,-0.289062,-0.183105,-0.061035,-0.061035,21.12,0
869160967,22237.997684,1777901069.597173,-469,-1892,-591,-3,-1,-1,-0.229004,-0.923828,-0.288574,-0.183105,-0.061035,-0.061035,21.30,0
869161978,22238.005568,1777901069.598184,-468,-1895,-588,-2,-1,-1,-0.228516,-0.925293,-0.287109,-0.122070,-0.061035,-0.061035,21.12,0
869162991,22238.005582,1777901069.599193,-466,-1900,-592,-2,-1,-2,-0.227539,-0.927734,-0.289062,-0.122070,-0.061035,-0.122070,21.23,1
869164003,22238.005593,1777901069.600205,-470,-1900,-592,-3,-1,-1,-0.229492,-0.927734,-0.289062,-0.183105,-0.061035,-0.061035,21.24,0
869165015,22238.005603,1777901069.601216,-472,-1898,-585,-3,-2,0,-0.230469,-0.926758,-0.285645,-0.183105,-0.122070,0.000000,21.15,0
869166026,22238.005613,1777901069.602226,-470,-1895,-589,-3,-1,-1,-0.229492,-0.925293,-0.287598,-0.183105,-0.061035,-0.061035,21.04,0
869167038,22238.005623,1777901069.603238,-468,-1897,-594,-3,0,-1,-0.228516,-0.926270,-0.290039,-0.183105,0.000000,-0.061035,21.32,0
869168050,22238.005632,1777901069.604249,-468,-1898,-594,-3,0,0,-0.228516,-0.926758,-0.290039,-0.183105,0.000000,0.000000,21.29,0
869169065,22238.005641,1777901069.605263,-472,-1897,-593,-3,-1,0,-0.230469,-0.926270,-0.289551,-0.183105,-0.061035,0.000000,21.17,0
869170075,22238.013653,1777901069.606272,-470,-1896,-591,-3,-2,-1,-0.229492,-0.925781,-0.288574,-0.183105,-0.122070,-0.061035,21.26,0
869171098,22238.013667,1777901069.607295,-466,-1895,-589,-4,-1,0,-0.227539,-0.925293,-0.287598,-0.244141,-0.061035,0.000000,21.07,0
869172104,22238.013674,1777901069.608300,-466,-1893,-588,-4,-1,0,-0.227539,-0.924316,-0.287109,-0.244141,-0.061035,0.000000,21.17,0
869173114,22238.013680,1777901069.609309,-468,-1894,-589,-3,-1,1,-0.228516,-0.924805,-0.287598,-0.183105,-0.061035,0.061035,21.20,0
869174126,22238.013686,1777901069.610321,-470,-1899,-592,-3,-2,0,-0.229492,-0.927246,-0.289062,-0.183105,-0.122070,0.000000,21.20,1
869175139,22238.013693,1777901069.611333,-469,-1899,-594,-3,-2,0,-0.229004,-0.927246,-0.290039,-0.183105,-0.122070,0.000000,21.14,0
869176150,22238.013699,1777901069.612344,-468,-1898,-595,-3,-2,-1,-0.228516,-0.926758,-0.290527,-0.183105,-0.122070,-0.061035,21.17,0
869177163,22238.013705,1777901069.613356,-468,-1897,-592,-3,-2,-1,-0.228516,-0.926270,-0.289062,-0.183105,-0.122070,-0.061035,21.17,0
869178173,22238.021738,1777901069.614364,-468,-1895,-591,-3,-1,-1,-0.228516,-0.925293,-0.288574,-0.183105,-0.061035,-0.061035,21.24,0
869179187,22238.021748,1777901069.615377,-468,-1896,-592,-3,-2,0,-0.228516,-0.925781,-0.289062,-0.183105,-0.122070,0.000000,21.29,0
869180198,22238.021755,1777901069.616388,-465,-1897,-590,-3,-3,1,-0.227051,-0.926270,-0.288086,-0.183105,-0.183105,0.061035,21.26,0
869181212,22238.021761,1777901069.617401,-466,-1897,-589,-3,-2,1,-0.227539,-0.926270,-0.287598,-0.183105,-0.122070,0.061035,21.23,0
869182224,22238.021767,1777901069.618412,-468,-1897,-590,-2,-1,1,-0.228516,-0.926270,-0.288086,-0.122070,-0.061035,0.061035,21.35,0
869183234,22238.021773,1777901069.619421,-463,-1895,-590,-2,-1,0,-0.226074,-0.925293,-0.288086,-0.122070,-0.061035,0.000000,21.20,0
869184247,22238.021780,1777901069.620434,-463,-1893,-590,-3,-1,0,-0.226074,-0.924316,-0.288086,-0.183105,-0.061035,0.000000,21.29,0
869185261,22238.021786,1777901069.621447,-468,-1895,-589,-3,-1,-1,-0.228516,-0.925293,-0.287598,-0.183105,-0.061035,-0.061035,21.33,1
869186271,22238.029864,1777901069.622457,-467,-1898,-589,-3,-1,-2,-0.228027,-0.926758,-0.287598,-0.183105,-0.061035,-0.122070,21.14,0
869187283,22238.029875,1777901069.623468,-468,-1896,-590,-4,-1,-2,-0.228516,-0.925781,-0.288086,-0.244141,-0.061035,-0.122070,21.09,0
869188296,22238.029881,1777901069.624480,-469,-1894,-592,-3,-1,-1,-0.229004,-0.924805,-0.289062,-0.183105,-0.061035,-0.061035,21.17,0
869189308,22238.029888,1777901069.625492,-468,-1898,-592,-2,-1,0,-0.228516,-0.926758,-0.289062,-0.122070,-0.061035,0.000000,21.17,0
869190322,22238.029894,1777901069.626505,-467,-1898,-590,-2,-1,-1,-0.228027,-0.926758,-0.288086,-0.122070,-0.061035,-0.061035,21.14,0
869191333,22238.029900,1777901069.627515,-467,-1894,-591,-3,0,-1,-0.228027,-0.924805,-0.288574,-0.183105,0.000000,-0.061035,21.00,0
869192345,22238.029906,1777901069.628527,-467,-1898,-592,-3,-1,1,-0.228027,-0.926758,-0.289062,-0.183105,-0.061035,0.061035,21.17,0
869193358,22238.029913,1777901069.629539,-467,-1900,-591,-4,0,0,-0.228027,-0.927734,-0.288574,-0.244141,0.000000,0.000000,21.09,0
869194372,22238.037936,1777901069.630552,-468,-1897,-590,-5,-1,0,-0.228516,-0.926270,-0.288086,-0.305176,-0.061035,0.000000,21.18,0
869195384,22238.037945,1777901069.631563,-469,-1900,-592,-4,-1,0,-0.229004,-0.927734,-0.289062,-0.244141,-0.061035,0.000000,21.18,0
869196396,22238.037951,1777901069.632578,-468,-1901,-594,-3,0,-1,-0.228516,-0.928223,-0.290039,-0.183105,0.000000,-0.061035,21.15,1
869197408,22238.037958,1777901069.633589,-467,-1897,-591,-2,-1,-1,-0.228027,-0.926270,-0.288574,-0.122070,-0.061035,-0.061035,21.20,0
869198420,22238.037964,1777901069.634601,-466,-1898,-589,-2,-2,-1,-0.227539,-0.926758,-0.287598,-0.122070,-0.122070,-0.061035,21.33,0
869199432,22238.037971,1777901069.635612,-467,-1899,-592,-2,-2,-1,-0.228027,-0.927246,-0.289062,-0.122070,-0.122070,-0.061035,21.24,0
869200444,22238.037977,1777901069.636623,-468,-1897,-593,-3,-2,-1,-0.228516,-0.926270,-0.289551,-0.183105,-0.122070,-0.061035,21.30,0
869201456,22238.037983,1777901069.637635,-468,-1894,-593,-2,-2,0,-0.228516,-0.924805,-0.289551,-0.122070,-0.122070,0.000000,21.11,0
869202467,22238.046060,1777901069.638645,-468,-1893,-591,-3,-2,0,-0.228516,-0.924316,-0.288574,-0.183105,-0.122070,0.000000,21.07,0
869203480,22238.046076,1777901069.639657,-466,-1897,-591,-3,-1,0,-0.227539,-0.926270,-0.288574,-0.183105,-0.061035,0.000000,21.23,0
869204492,22238.046083,1777901069.640669,-466,-1896,-594,-3,-1,0,-0.227539,-0.925781,-0.290039,-0.183105,-0.061035,0.000000,21.12,0
869205504,22238.046090,1777901069.641680,-467,-1894,-595,-3,-1,-1,-0.228027,-0.924805,-0.290527,-0.183105,-0.061035,-0.061035,21.07,0
869206517,22238.046096,1777901069.642692,-468,-1896,-593,-3,-2,-1,-0.228516,-0.925781,-0.289551,-0.183105,-0.122070,-0.061035,21.23,0
869207531,22238.046103,1777901069.643706,-468,-1899,-592,-3,-1,-1,-0.228516,-0.927246,-0.289062,-0.183105,-0.061035,-0.061035,21.29,1
869208542,22238.046110,1777901069.644716,-469,-1899,-592,-3,-1,0,-0.229004,-0.927246,-0.289062,-0.183105,-0.061035,0.000000,21.17,0
869209554,22238.046116,1777901069.645727,-468,-1897,-591,-4,-1,0,-0.228516,-0.926270,-0.288574,-0.244141,-0.061035,0.000000,21.20,0
869210567,22238.054122,1777901069.646741,-467,-1895,-589,-4,0,0,-0.228027,-0.925293,-0.287598,-0.244141,0.000000,0.000000,21.14,0
869211578,22238.054166,1777901069.647751,-469,-1898,-587,-2,0,0,-0.229004,-0.926758,-0.286621,-0.122070,0.000000,0.000000,21.18,0
869212591,22238.054174,1777901069.648764,-469,-1900,-589,-2,-1,0,-0.229004,-0.927734,-0.287598,-0.122070,-0.061035,0.000000,21.32,0
869213602,22238.054181,1777901069.649774,-469,-1899,-592,-4,-1,1,-0.229004,-0.927246,-0.289062,-0.244141,-0.061035,0.061035,21.24,0
869214616,22238.054187,1777901069.650787,-469,-1897,-593,-4,-1,1,-0.229004,-0.926270,-0.289551,-0.244141,-0.061035,0.061035,21.35,0
869215627,22238.054194,1777901069.651798,-468,-1897,-592,-3,-1,0,-0.228516,-0.926270,-0.289062,-0.183105,-0.061035,0.000000,21.35,0
869216641,22238.054229,1777901069.652811,-466,-1899,-588,-2,-1,-1,-0.227539,-0.927246,-0.287109,-0.122070,-0.061035,-0.061035,21.21,0
869217653,22238.054235,1777901069.653822,-467,-1899,-586,-3,-2,-1,-0.228027,-0.927246,-0.286133,-0.183105,-0.122070,-0.061035,21.20,0
869218664,22238.062212,1777901069.654828,-470,-1897,-589,-4,-2,0,-0.229492,-0.926270,-0.287598,-0.244141,-0.122070,0.000000,21.23,1
869219675,22238.062231,1777901069.655839,-469,-1896,-588,-3,-1,0,-0.229004,-0.925781,-0.287109,-0.183105,-0.061035,0.000000,21.20,0
869220689,22238.062238,1777901069.656852,-468,-1895,-585,-3,-1,0,-0.228516,-0.925293,-0.285645,-0.183105,-0.061035,0.000000,21.17,0
869221702,22238.062244,1777901069.657864,-467,-1897,-588,-4,-1,-1,-0.228027,-0.926270,-0.287109,-0.244141,-0.061035,-0.061035,21.18,0
869222714,22238.062250,1777901069.658876,-465,-1900,-590,-4,-1,-2,-0.227051,-0.927734,-0.288086,-0.244141,-0.061035,-0.122070,21.26,0
869223726,22238.062257,1777901069.659887,-466,-1899,-588,-3,-1,-1,-0.227539,-0.927246,-0.287109,-0.183105,-0.061035,-0.061035,20.97,0
869224739,22238.062263,1777901069.660899,-470,-1897,-586,-3,-1,0,-0.229492,-0.926270,-0.286133,-0.183105,-0.061035,0.000000,21.21,0
869225751,22238.062270,1777901069.661911,-470,-1898,-586,-4,-1,0,-0.229492,-0.926758,-0.286133,-0.244141,-0.061035,0.000000,21.26,0
869226763,22238.070335,1777901069.662922,-468,-1895,-591,-4,-1,0,-0.228516,-0.925293,-0.288574,-0.244141,-0.061035,0.000000,21.32,0
869227773,22238.070349,1777901069.663931,-468,-1894,-593,-3,-1,0,-0.228516,-0.924805,-0.289551,-0.183105,-0.061035,0.000000,21.29,0
869228786,22238.070357,1777901069.664943,-470,-1896,-593,-3,-1,-1,-0.229492,-0.925781,-0.289551,-0.183105,-0.061035,-0.061035,21.26,0
869229800,22238.070363,1777901069.665957,-469,-1896,-594,-3,-1,-1,-0.229004,-0.925781,-0.290039,-0.183105,-0.061035,-0.061035,21.33,1
869230811,22238.070370,1777901069.666968,-467,-1898,-592,-2,0,-1,-0.228027,-0.926758,-0.289062,-0.122070,0.000000,-0.061035,21.23,0
869231825,22238.070377,1777901069.667981,-468,-1901,-589,-3,0,0,-0.228516,-0.928223,-0.287598,-0.183105,0.000000,0.000000,21.01,0
869232836,22238.070384,1777901069.668991,-470,-1900,-591,-3,0,-1,-0.229492,-0.927734,-0.288574,-0.183105,0.000000,-0.061035,21.23,0
869233847,22238.070390,1777901069.670002,-473,-1898,-593,-3,-1,-1,-0.230957,-0.926758,-0.289551,-0.183105,-0.061035,-0.061035,21.24,0
869234862,22238.078453,1777901069.671016,-471,-1896,-590,-3,-2,0,-0.229980,-0.925781,-0.288086,-0.183105,-0.122070,0.000000,21.24,0
869235874,22238.078468,1777901069.672027,-467,-1895,-587,-3,-2,0,-0.228027,-0.925293,-0.286621,-0.183105,-0.122070,0.000000,21.41,0
869236886,22238.078475,1777901069.673038,-467,-1897,-587,-3,-2,0,-0.228027,-0.926270,-0.286621,-0.183105,-0.122070,0.000000,21.30,0
869237899,22238.078482,1777901069.674051,-466,-1897,-591,-3,-3,0,-0.227539,-0.926270,-0.288574,-0.183105,-0.183105,0.000000,21.18,0
869238911,22238.078489,1777901069.675062,-468,-1894,-595,-2,-2,-1,-0.228516,-0.924805,-0.290527,-0.122070,-0.122070,-0.061035,21.30,0
869239923,22238.078495,1777901069.676074,-470,-1896,-593,-2,-1,-1,-0.229492,-0.925781,-0.289551,-0.122070,-0.061035,-0.061035,21.11,0
869240935,22238.078502,1777901069.677085,-469,-1899,-589,-3,0,0,-0.229004,-0.927246,-0.287598,-0.183105,0.000000,0.000000,21.20,1
869241948,22238.078509,1777901069.678097,-470,-1898,-591,-4,-1,0,-0.229492,-0.926758,-0.288574,-0.244141,-0.061035,0.000000,21.32,0
869242960,22238.086554,1777901069.679107,-468,-1897,-593,-3,-1,-1,-0.228516,-0.926270,-0.289551,-0.183105,-0.061035,-0.061035,21.23,0
869243970,22238.086565,1777901069.680116,-467,-1896,-589,-3,-1,-1,-0.228027,-0.925781,-0.287598,-0.183105,-0.061035,-0.061035,21.23,0
869244985,22238.086571,1777901069.681131,-468,-1898,-590,-3,-1,-2,-0.228516,-0.926758,-0.288086,-0.183105,-0.061035,-0.122070,21.14,0
869245996,22238.086578,1777901069.682141,-468,-1900,-594,-3,-1,-1,-0.228516,-0.927734,-0.290039,-0.183105,-0.061035,-0.061035,21.30,0
869247009,22238.086584,1777901069.683153,-467,-1898,-591,-4,-1,-1,-0.228027,-0.926758,-0.288574,-0.244141,-0.061035,-0.061035,21.18,0
869248020,22238.086590,1777901069.684164,-465,-1899,-590,-4,-1,-1,-0.227051,-0.927246,-0.288086,-0.244141,-0.061035,-0.061035,21.24,0
869249033,22238.086597,1777901069.685176,-467,-1898,-591,-3,-2,-2,-0.228027,-0.926758,-0.288574,-0.183105,-0.122070,-0.122070,21.20,0
869250045,22238.086603,1777901069.686187,-471,-1900,-591,-2,-1,-1,-0.229980,-0.927734,-0.288574,-0.122070,-0.061035,-0.061035,21.14,0
869251057,22238.094644,1777901069.687198,-470,-1900,-592,-3,-1,0,-0.229492,-0.927734,-0.289062,-0.183105,-0.061035,0.000000,21.15,0
869252069,22238.094656,1777901069.688210,-467,-1894,-593,-4,-1,-1,-0.228027,-0.924805,-0.289551,-0.244141,-0.061035,-0.061035,21.26,1
869253080,22238.094667,1777901069.689220,-469,-1892,-589,-3,-2,0,-0.229004,-0.923828,-0.287598,-0.183105,-0.122070,0.000000,21.29,0
869254099,22238.094677,1777901069.690238,-470,-1896,-587,-3,-1,0,-0.229492,-0.925781,-0.286621,-0.183105,-0.061035,0.000000,21.23,0
869255107,22238.094687,1777901069.691246,-469,-1897,-593,-3,-1,0,-0.229004,-0.926270,-0.289551,-0.183105,-0.061035,0.000000,21.12,0
869256119,22238.094696,1777901069.692257,-470,-1896,-596,-3,-1,-1,-0.229492,-0.925781,-0.291016,-0.183105,-0.061035,-0.061035,21.24,0
869257131,22238.094705,1777901069.693268,-467,-1896,-593,-2,0,-2,-0.228027,-0.925781,-0.289551,-0.122070,0.000000,-0.122070,21.26,0
869258144,22238.094715,1777901069.694280,-467,-1893,-590,-2,-1,-1,-0.228027,-0.924316,-0.288086,-0.122070,-0.061035,-0.061035,21.09,0
869259156,22238.102735,1777901069.695292,-471,-1896,-591,-3,-2,0,-0.229980,-0.925781,-0.288574,-0.183105,-0.122070,0.000000,21.18,0
869260168,22238.102755,1777901069.696303,-472,-1902,-589,-3,-1,1,-0.230469,-0.928711,-0.287598,-0.183105,-0.061035,0.061035,21.27,0
869261181,22238.102762,1777901069.697315,-469,-1900,-589,-3,-1,1,-0.229004,-0.927734,-0.287598,-0.183105,-0.061035,0.061035,21.26,0
869262191,22238.102769,1777901069.698325,-468,-1897,-596,-3,-1,-1,-0.228516,-0.926270,-0.291016,-0.183105,-0.061035,-0.061035,21.15,0
869263205,22238.102775,1777901069.699338,-467,-1897,-595,-4,-1,-1,-0.228027,-0.926270,-0.290527,-0.244141,-0.061035,-0.061035,21.23,1
869264216,22238.102783,1777901069.700348,-467,-1896,-589,-3,-1,0,-0.228027,-0.925781,-0.287598,-0.183105,-0.061035,0.000000,21.20,0
869265230,22238.102789,1777901069.701362,-468,-1897,-590,-3,-2,1,-0.228516,-0.926270,-0.288086,-0.183105,-0.122070,0.061035,21.39,0
869266242,22238.102795,1777901069.702373,-467,-1900,-591,-2,-2,0,-0.228027,-0.927734,-0.288574,-0.122070,-0.122070,0.000000,21.26,0
869267253,22238.110847,1777901069.703387,-464,-1900,-589,-2,-2,0,-0.226562,-0.927734,-0.287598,-0.122070,-0.122070,0.000000,21.27,0
869268265,22238.110862,1777901069.704398,-463,-1899,-589,-2,-1,0,-0.226074,-0.927246,-0.287598,-0.122070,-0.061035,0.000000,21.45,0
869269279,22238.110869,1777901069.705411,-466,-1899,-590,-2,-1,0,-0.227539,-0.927246,-0.288086,-0.122070,-0.061035,0.000000,21.18,0
869270289,22238.110875,1777901069.706421,-467,-1897,-589,-2,-1,0,-0.228027,-0.926270,-0.287598,-0.122070,-0.061035,0.000000,21.23,0
869271302,22238.110882,1777901069.707433,-466,-1894,-589,-2,-2,0,-0.227539,-0.924805,-0.287598,-0.122070,-0.122070,0.000000,21.32,0
869272313,22238.110889,1777901069.708443,-467,-1896,-592,-2,-2,0,-0.228027,-0.925781,-0.289062,-0.122070,-0.122070,0.000000,21.17,0
869273327,22238.110939,1777901069.709457,-471,-1896,-593,-2,-1,0,-0.229980,-0.925781,-0.289551,-0.122070,-0.061035,0.000000,21.14,0
869274338,22238.110950,1777901069.710467,-472,-1894,-591,-3,-1,0,-0.230469,-0.924805,-0.288574,-0.183105,-0.061035,0.000000,21.17,1
869275352,22238.118925,1777901069.711478,-471,-1897,-588,-4,-1,0,-0.229980,-0.926270,-0.287109,-0.244141,-0.061035,0.000000,21.30,0
869276362,22238.118940,1777901069.712487,-472,-1900,-587,-3,-2,1,-0.230469,-0.927734,-0.286621,-0.183105,-0.122070,0.061035,21.15,0
869277377,22238.118948,1777901069.713502,-473,-1898,-590,-3,-2,0,-0.230957,-0.926758,-0.288086,-0.183105,-0.122070,0.000000,21.26,0
869278387,22238.118954,1777901069.714511,-470,-1896,-594,-2,-1,0,-0.229492,-0.925781,-0.290039,-0.122070,-0.061035,0.000000,21.29,0
869279401,22238.118961,1777901069.715524,-468,-1896,-594,-2,-1,0,-0.228516,-0.925781,-0.290039,-0.122070,-0.061035,0.000000,21.15,0
869280411,22238.118967,1777901069.716534,-467,-1897,-591,-3,0,0,-0.228027,-0.926270,-0.288574,-0.183105,0.000000,0.000000,21.15,0
869281425,22238.118973,1777901069.717547,-466,-1899,-589,-3,0,0,-0.227539,-0.927246,-0.287598,-0.183105,0.000000,0.000000,21.30,0
869282436,22238.118979,1777901069.718557,-467,-1897,-591,-2,-1,0,-0.228027,-0.926270,-0.288574,-0.122070,-0.061035,0.000000,21.00,0
869283448,22238.127013,1777901069.719568,-468,-1894,-592,-3,-2,-1,-0.228516,-0.924805,-0.289062,-0.183105,-0.122070,-0.061035,21.17,0
869284462,22238.127037,1777901069.720582,-469,-1896,-591,-4,-1,-1,-0.229004,-0.925781,-0.288574,-0.244141,-0.061035,-0.061035,21.24,0
869285474,22238.127045,1777901069.721593,-468,-1898,-589,-3,-2,0,-0.228516,-0.926758,-0.287598,-0.183105,-0.122070,0.000000,21.18,1
869286486,22238.127052,1777901069.722605,-469,-1898,-589,-2,-2,-1,-0.229004,-0.926758,-0.287598,-0.122070,-0.122070,-0.061035,21.27,0
869287498,22238.127058,1777901069.723616,-469,-1899,-590,-2,-1,-2,-0.229004,-0.927246,-0.288086,-0.122070,-0.061035,-0.122070,21.23,0
869288510,22238.127065,1777901069.724627,-468,-1898,-588,-3,-1,-1,-0.228516,-0.926758,-0.287109,-0.183105,-0.061035,-0.061035,21.21,0
869289521,22238.127071,1777901069.725637,-471,-1897,-586,-3,-1,0,-0.229980,-0.926270,-0.286133,-0.183105,-0.061035,0.000000,21.07,0
869290533,22238.127077,1777901069.726649,-472,-1897,-589,-3,-1,0,-0.230469,-0.926270,-0.287598,-0.183105,-0.061035,0.000000,21.24,0
869291548,22238.135105,1777901069.727663,-471,-1896,-593,-3,0,-1,-0.229980,-0.925781,-0.289551,-0.183105,0.000000,-0.061035,21.38,0
869292560,22238.135119,1777901069.728674,-467,-1897,-595,-4,-1,-1,-0.228027,-0.926270,-0.290527,-0.244141,-0.061035,-0.061035,21.09,0
869293572,22238.135127,1777901069.729686,-465,-1898,-594,-4,-1,-1,-0.227051,-0.926758,-0.290039,-0.244141,-0.061035,-0.061035,21.29,0
869294582,22238.135133,1777901069.730695,-468,-1897,-594,-4,-1,-1,-0.228516,-0.926270,-0.290039,-0.244141,-0.061035,-0.061035,21.24,0
869295596,22238.135140,1777901069.731708,-469,-1898,-595,-3,-2,-1,-0.229004,-0.926758,-0.290527,-0.183105,-0.122070,-0.061035,21.20,0
869296607,22238.135146,1777901069.732718,-465,-1900,-592,-3,-2,-1,-0.227051,-0.927734,-0.289062,-0.183105,-0.122070,-0.061035,21.27,1
869297619,22238.135153,1777901069.733730,-466,-1898,-588,-3,-2,-1,-0.227539,-0.926758,-0.287109,-0.183105,-0.122070,-0.061035,21.24,0
869298631,22238.135159,1777901069.734741,-469,-1896,-592,-3,-1,0,-0.229004,-0.925781,-0.289062,-0.183105,-0.061035,0.000000,21.17,0
869299646,22238.143219,1777901069.735758,-467,-1898,-596,-3,-1,0,-0.228027,-0.926758,-0.291016,-0.183105,-0.061035,0.000000,21.12,0
869300657,22238.143234,1777901069.736768,-467,-1899,-592,-4,-1,0,-0.228027,-0.927246,-0.289062,-0.244141,-0.061035,0.000000,21.20,0
869301670,22238.143242,1777901069.737781,-470,-1896,-590,-4,-1,0,-0.229492,-0.925781,-0.288086,-0.244141,-0.061035,0.000000,21.26,0
869302682,22238.143248,1777901069.738792,-467,-1894,-592,-4,-2,0,-0.228027,-0.924805,-0.289062,-0.244141,-0.122070,0.000000,21.15,0
869303694,22238.143254,1777901069.739803,-465,-1895,-593,-4,-1,0,-0.227051,-0.925293,-0.289551,-0.244141,-0.061035,0.000000,21.35,0
869304706,22238.143261,1777901069.740815,-467,-1898,-592,-3,-1,0,-0.228027,-0.926758,-0.289062,-0.183105,-0.061035,0.000000,21.35,0
869305720,22238.143267,1777901069.741828,-470,-1899,-590,-3,-2,0,-0.229492,-0.927246,-0.288086,-0.183105,-0.122070,0.000000,21.26,0
869306732,22238.143273,1777901069.742839,-470,-1899,-588,-4,-2,0,-0.229492,-0.927246,-0.287109,-0.244141,-0.122070,0.000000,21.44,0
869307742,22238.151346,1777901069.743850,-469,-1898,-589,-3,-1,0,-0.229004,-0.926758,-0.287598,-0.183105,-0.061035,0.000000,21.27,1
869308754,22238.151369,1777901069.744862,-471,-1896,-590,-3,-1,-1,-0.229980,-0.925781,-0.288086,-0.183105,-0.061035,-0.061035,21.23,0
869309768,22238.151379,1777901069.745875,-472,-1897,-590,-3,-1,-1,-0.230469,-0.926270,-0.288086,-0.183105,-0.061035,-0.061035,21.26,0
869310780,22238.151390,1777901069.746886,-467,-1899,-592,-3,-2,-1,-0.228027,-0.927246,-0.289062,-0.183105,-0.122070,-0.061035,21.14,0
869311793,22238.151401,1777901069.747899,-465,-1895,-592,-2,-1,-1,-0.227051,-0.925293,-0.289062,-0.122070,-0.061035,-0.061035,21.35,0
869312805,22238.151411,1777901069.748910,-466,-1894,-592,-2,-1,-1,-0.227539,-0.924805,-0.289062,-0.122070,-0.061035,-0.061035,21.23,0
869313816,22238.151422,1777901069.749921,-467,-1898,-591,-3,-2,0,-0.228027,-0.926758,-0.288574,-0.183105,-0.122070,0.000000,21.35,0
869314830,22238.151431,1777901069.750934,-468,-1895,-589,-3,-2,0,-0.228516,-0.925293,-0.287598,-0.183105,-0.122070,0.000000,21.24,0
869315842,22238.159413,1777901069.751945,-469,-1895,-592,-2,-2,0,-0.229004,-0.925293,-0.289062,-0.122070,-0.122070,0.000000,21.29,0
869316854,22238.159428,1777901069.752957,-466,-1899,-597,-2,-1,0,-0.227539,-0.927246,-0.291504,-0.122070,-0.061035,0.000000,21.29,0
869317867,22238.159434,1777901069.753969,-465,-1898,-595,-3,-1,0,-0.227051,-0.926758,-0.290527,-0.183105,-0.061035,0.000000,21.11,0
869318877,22238.159441,1777901069.754978,-468,-1896,-588,-3,0,-1,-0.228516,-0.925781,-0.287109,-0.183105,0.000000,-0.061035,21.21,1
869319890,22238.159448,1777901069.755991,-468,-1897,-586,-4,0,-1,-0.228516,-0.926270,-0.286133,-0.244141,0.000000,-0.061035,21.20,0
869320902,22238.159455,1777901069.757002,-467,-1898,-593,-5,0,0,-0.228027,-0.926758,-0.289551,-0.305176,0.000000,0.000000,21.23,0
869321915,22238.159461,1777901069.758014,-469,-1897,-596,-4,0,1,-0.229004,-0.926270,-0.291016,-0.244141,0.000000,0.061035,21.17,0
869322928,22238.159467,1777901069.759027,-471,-1897,-594,-3,-2,0,-0.229980,-0.926270,-0.290039,-0.183105,-0.122070,0.000000,21.23,0
869323941,22238.167520,1777901069.760039,-468,-1897,-592,-3,-3,-1,-0.228516,-0.926270,-0.289062,-0.183105,-0.183105,-0.061035,21.15,0
869324951,22238.167537,1777901069.761048,-467,-1895,-590,-3,-2,-1,-0.228027,-0.925293,-0.288086,-0.183105,-0.122070,-0.061035,21.20,0
869325965,22238.167544,1777901069.762062,-468,-1894,-592,-2,-1,0,-0.228516,-0.924805,-0.289062,-0.122070,-0.061035,0.000000,21.23,0
869326976,22238.167550,1777901069.763072,-466,-1898,-592,-3,-1,0,-0.227539,-0.926758,-0.289062,-0.183105,-0.061035,0.000000,21.23,0
869327988,22238.167558,1777901069.764083,-467,-1901,-589,-4,-1,0,-0.228027,-0.928223,-0.287598,-0.244141,-0.061035,0.000000,21.21,0
869329001,22238.167568,1777901069.765096,-468,-1900,-589,-3,-2,0,-0.228516,-0.927734,-0.287598,-0.183105,-0.122070,0.000000,21.15,0
869330014,22238.167578,1777901069.766108,-468,-1897,-592,-2,-1,0,-0.228516,-0.926270,-0.289062,-0.122070,-0.061035,0.000000,21.14,1
869331025,22238.167588,1777901069.767118,-467,-1896,-591,-2,-1,1,-0.228027,-0.925781,-0.288574,-0.122070,-0.061035,0.061035,21.26,0
869332037,22238.175618,1777901069.768130,-466,-1897,-588,-2,-1,0,-0.227539,-0.926270,-0.287109,-0.122070,-0.061035,0.000000,21.17,0
869333049,22238.175633,1777901069.769142,-467,-1899,-590,-3,-2,-1,-0.228027,-0.927246,-0.288086,-0.183105,-0.122070,-0.061035,21.35,0
869334061,22238.175640,1777901069.770153,-468,-1899,-591,-3,-2,-1,-0.228516,-0.927246,-0.288574,-0.183105,-0.122070,-0.061035,21.24,0
869335074,22238.175647,1777901069.771165,-469,-1897,-591,-3,-2,0,-0.229004,-0.926270,-0.288574,-0.183105,-0.122070,0.000000,21.26,0
869336094,22238.175685,1777901069.772185,-468,-1897,-591,-3,-1,1,-0.228516,-0.926270,-0.288574,-0.183105,-0.061035,0.061035,21.17,0
869337098,22238.175692,1777901069.773188,-467,-1897,-591,-3,-1,1,-0.228027,-0.926270,-0.288574,-0.183105,-0.061035,0.061035,21.26,0
869338109,22238.175698,1777901069.774199,-466,-1896,-593,-3,-1,0,-0.227539,-0.925781,-0.289551,-0.183105,-0.061035,0.000000,21.27,0
869339124,22238.175705,1777901069.775213,-467,-1897,-596,-3,-1,0,-0.228027,-0.926270,-0.291016,-0.183105,-0.061035,0.000000,21.26,0
869340134,22238.183724,1777901069.776222,-470,-1897,-593,-4,-1,0,-0.229492,-0.926270,-0.289551,-0.244141,-0.061035,0.000000,21.35,0
869341146,22238.183742,1777901069.777231,-469,-1894,-588,-4,-1,0,-0.229004,-0.924805,-0.287109,-0.244141,-0.061035,0.000000,21.24,1
869342158,22238.183753,1777901069.778242,-468,-1895,-589,-4,-2,0,-0.228516,-0.925293,-0.287598,-0.244141,-0.122070,0.000000,21.38,0
869343171,22238.183763,1777901069.779254,-469,-1899,-591,-4,-2,0,-0.229004,-0.927246,-0.288574,-0.244141,-0.122070,0.000000,21.35,0
869344185,22238.183774,1777901069.780267,-470,-1899,-591,-2,-1,1,-0.229492,-0.927246,-0.288574,-0.122070,-0.061035,0.061035,21.24,0
869345195,22238.183784,1777901069.781277,-470,-1896,-592,-2,-2,0,-0.229492,-0.925781,-0.289062,-0.122070,-0.122070,0.000000,21.03,0
869346210,22238.183802,1777901069.782291,-469,-1895,-590,-3,-2,-1,-0.229004,-0.925293,-0.288086,-0.183105,-0.122070,-0.061035,21.24,0
869347222,22238.183813,1777901069.783303,-468,-1897,-591,-3,-1,0,-0.228516,-0.926270,-0.288574,-0.183105,-0.061035,0.000000,21.47,0
869348233,22238.191804,1777901069.784313,-467,-1897,-593,-4,-1,-1,-0.228027,-0.926270,-0.289551,-0.244141,-0.061035,-0.061035,21.17,0
869349244,22238.191829,1777901069.785323,-467,-1897,-592,-3,-1,-1,-0.228027,-0.926270,-0.289062,-0.183105,-0.061035,-0.061035,21.21,0
869350260,22238.191840,1777901069.786339,-468,-1898,-591,-2,-1,0,-0.228516,-0.926758,-0.288574,-0.122070,-0.061035,0.000000,21.27,0
869351270,22238.191850,1777901069.787348,-467,-1896,-591,-3,-1,0,-0.228027,-0.925781,-0.288574,-0.183105,-0.061035,0.000000,21.35,0
869352283,22238.191859,1777901069.788360,-466,-1895,-589,-4,-2,1,-0.227539,-0.925293,-0.287598,-0.244141,-0.122070,0.061035,21.14,1
869353296,22238.191870,1777901069.789372,-468,-1897,-590,-4,-2,1,-0.228516,-0.926270,-0.288086,-0.244141,-0.122070,0.061035,21.36,0
869354308,22238.191881,1777901069.790384,-468,-1895,-595,-4,-1,0,-0.228516,-0.925293,-0.290527,-0.244141,-0.061035,0.000000,21.38,0
869355319,22238.191890,1777901069.791394,-465,-1895,-595,-4,-1,-1,-0.227051,-0.925293,-0.290527,-0.244141,-0.061035,-0.061035,21.09,0
869356331,22238.199920,1777901069.792408,-466,-1901,-594,-3,-2,0,-0.227539,-0.928223,-0.290039,-0.183105,-0.122070,0.000000,21.38,0
869357344,22238.199935,1777901069.793420,-470,-1900,-593,-3,-1,0,-0.229492,-0.927734,-0.289551,-0.183105,-0.061035,0.000000,21.17,0
869358357,22238.199942,1777901069.794432,-467,-1895,-590,-4,-1,-1,-0.228027,-0.925293,-0.288086,-0.244141,-0.061035,-0.061035,21.29,0
869359367,22238.199948,1777901069.795442,-465,-1896,-590,-4,-1,-1,-0.227051,-0.925781,-0.288086,-0.244141,-0.061035,-0.061035,21.26,0
869360380,22238.199955,1777901069.796454,-469,-1899,-588,-3,-1,-1,-0.229004,-0.927246,-0.287109,-0.183105,-0.061035,-0.061035,21.32,0
869361394,22238.199961,1777901069.797467,-468,-1898,-586,-4,0,0,-0.228516,-0.926758,-0.286133,-0.244141,0.000000,0.000000,21.07,0
869362405,22238.199967,1777901069.798478,-466,-1898,-590,-4,0,1,-0.227539,-0.926758,-0.288086,-0.244141,0.000000,0.061035,21.30,0
869363417,22238.199974,1777901069.799489,-468,-1899,-592,-3,0,0,-0.228516,-0.927246,-0.289062,-0.183105,0.000000,0.000000,21.24,1
869364429,22238.207997,1777901069.800498,-470,-1901,-589,-3,-1,-2,-0.229492,-0.928223,-0.287598,-0.183105,-0.061035,-0.122070,21.11,0
869365443,22238.208019,1777901069.801511,-468,-1900,-588,-3,-2,-2,-0.228516,-0.927734,-0.287109,-0.183105,-0.122070,-0.122070,21.20,0
869366455,22238.208026,1777901069.802522,-468,-1895,-591,-2,0,0,-0.228516,-0.925293,-0.288574,-0.122070,0.000000,0.000000,21.26,0
869367467,22238.208033,1777901069.803534,-469,-1894,-591,-2,0,0,-0.229004,-0.924805,-0.288574,-0.122070,0.000000,0.000000,21.18,0
869368480,22238.208039,1777901069.804546,-467,-1896,-591,-3,-1,-1,-0.228027,-0.925781,-0.288574,-0.183105,-0.061035,-0.061035,21.20,0
869369491,22238.208046,1777901069.805556,-463,-1898,-592,-3,-2,-1,-0.226074,-0.926758,-0.289062,-0.183105,-0.122070,-0.061035,21.23,0
869370502,22238.208052,1777901069.806566,-466,-1899,-588,-3,-2,0,-0.227539,-0.927246,-0.287109,-0.183105,-0.122070,0.000000,21.14,0
869371514,22238.208058,1777901069.807578,-469,-1899,-584,-4,-1,1,-0.229004,-0.927246,-0.285156,-0.244141,-0.061035,0.061035,21.18,0
869372527,22238.218906,1777901069.808590,-469,-1898,-590,-4,0,1,-0.229004,-0.926758,-0.288086,-0.244141,0.000000,0.061035,21.17,0
869373540,22238.218920,1777901069.809602,-469,-1901,-595,-3,0,0,-0.229004,-0.928223,-0.290527,-0.183105,0.000000,0.000000,21.14,0
869374552,22238.218927,1777901069.810615,-470,-1899,-590,-3,0,0,-0.229492,-0.927246,-0.288086,-0.183105,0.000000,0.000000,21.12,1
869375565,22238.218935,1777901069.811627,-472,-1894,-588,-3,-1,0,-0.230469,-0.924805,-0.287109,-0.183105,-0.061035,0.000000,21.26,0
869376578,22238.218942,1777901069.812639,-471,-1893,-591,-3,-2,-1,-0.229980,-0.924316,-0.288574,-0.183105,-0.122070,-0.061035,21.26,0
869377588,22238.218948,1777901069.813649,-470,-1895,-591,-3,-2,0,-0.229492,-0.925293,-0.288574,-0.183105,-0.122070,0.000000,21.23,0
869378602,22238.218954,1777901069.814662,-468,-1895,-592,-3,-2,1,-0.228516,-0.925293,-0.289062,-0.183105,-0.122070,0.061035,21.24,0
869379614,22238.218961,1777901069.815674,-467,-1895,-592,-2,-2,2,-0.228027,-0.925293,-0.289062,-0.122070,-0.122070,0.122070,21.14,0
869380625,22238.224166,1777901069.816684,-468,-1894,-592,-3,-1,1,-0.228516,-0.924805,-0.289062,-0.183105,-0.061035,0.061035,21.07,0
869381638,22238.224180,1777901069.817696,-470,-1894,-591,-3,-1,0,-0.229492,-0.924805,-0.288574,-0.183105,-0.061035,0.000000,21.20,0
869382649,22238.224187,1777901069.818707,-469,-1894,-587,-3,-1,0,-0.229004,-0.924805,-0.286621,-0.183105,-0.061035,0.000000,21.27,0
869383663,22238.224194,1777901069.819720,-467,-1895,-589,-3,-2,-1,-0.228027,-0.925293,-0.287598,-0.183105,-0.122070,-0.061035,21.17,0
869384674,22238.224200,1777901069.820730,-465,-1895,-593,-3,-2,-1,-0.227051,-0.925293,-0.289551,-0.183105,-0.122070,-0.061035,21.21,0
869385688,22238.224207,1777901069.821743,-466,-1896,-591,-3,-2,0,-0.227539,-0.925781,-0.288574,-0.183105,-0.122070,0.000000,21.24,1
869386699,22238.224214,1777901069.822754,-466,-1900,-590,-2,-2,1,-0.227539,-0.927734,-0.288086,-0.122070,-0.122070,0.061035,21.29,0
869387711,22238.224220,1777901069.823765,-465,-1904,-592,-2,-1,0,-0.227051,-0.929688,-0.289062,-0.122070,-0.061035,0.000000,21.17,0
869388724,22238.232338,1777901069.824778,-467,-1900,-592,-3,-1,-1,-0.228027,-0.927734,-0.289062,-0.183105,-0.061035,-0.061035,21.09,0
869389737,22238.232364,1777901069.825790,-471,-1896,-590,-3,-1,-1,-0.229980,-0.925781,-0.288086,-0.183105,-0.061035,-0.061035,21.17,0
869390748,22238.232371,1777901069.826800,-473,-1896,-592,-4,-1,-1,-0.230957,-0.925781,-0.289062,-0.244141,-0.061035,-0.061035,21.41,0
869391761,22238.232378,1777901069.827813,-470,-1897,-591,-3,-1,0,-0.229492,-0.926270,-0.288574,-0.183105,-0.061035,0.000000,21.24,0
869392771,22238.232384,1777901069.828822,-466,-1899,-589,-2,-1,-1,-0.227539,-0.927246,-0.287598,-0.122070,-0.061035,-0.061035,21.07,0
869393785,22238.232391,1777901069.829835,-464,-1900,-593,-2,-1,-1,-0.226562,-0.927734,-0.289551,-0.122070,-0.061035,-0.061035,21.01,0
869394797,22238.232397,1777901069.830847,-464,-1899,-597,-3,-1,-1,-0.226562,-0.927246,-0.291504,-0.183105,-0.061035,-0.061035,21.29,0
869395810,22238.232404,1777901069.831859,-466,-1897,-594,-4,-1,0,-0.227539,-0.926270,-0.290039,-0.244141,-0.061035,0.000000,21.12,0
869396821,22238.240392,1777901069.832871,-467,-1896,-591,-3,-2,0,-0.228027,-0.925781,-0.288574,-0.183105,-0.122070,0.000000,21.27,1
869397834,22238.240407,1777901069.833884,-468,-1897,-590,-3,-1,-1,-0.228516,-0.926270,-0.288086,-0.183105,-0.061035,-0.061035,21.30,0
869398848,22238.240451,1777901069.834897,-468,-1899,-592,-3,0,-1,-0.228516,-0.927246,-0.289062,-0.183105,0.000000,-0.061035,21.32,0
869399860,22238.240458,1777901069.835908,-469,-1898,-591,-3,-1,0,-0.229004,-0.926758,-0.288574,-0.183105,-0.061035,0.000000,21.18,0
869400869,22238.240464,1777901069.836917,-468,-1896,-590,-3,-1,0,-0.228516,-0.925781,-0.288086,-0.183105,-0.061035,0.000000,21.24,0
869401882,22238.240483,1777901069.837929,-470,-1897,-591,-3,-1,1,-0.229492,-0.926270,-0.288574,-0.183105,-0.061035,0.061035,21.21,0
869402896,22238.240489,1777901069.838943,-468,-1899,-592,-3,-2,0,-0.228516,-0.927246,-0.289062,-0.183105,-0.122070,0.000000,21.23,0
869403908,22238.240496,1777901069.839954,-465,-1899,-595,-3,-2,-1,-0.227051,-0.927246,-0.290527,-0.183105,-0.122070,-0.061035,21.20,0
869404918,22238.248504,1777901069.840963,-468,-1897,-592,-3,-1,-2,-0.228516,-0.926270,-0.289062,-0.183105,-0.061035,-0.122070,21.23,0
869405932,22238.248517,1777901069.841976,-469,-1897,-590,-3,-2,-1,-0.229004,-0.926270,-0.288086,-0.183105,-0.122070,-0.061035,21.18,0
869406944,22238.248524,1777901069.842988,-469,-1898,-591,-3,-2,1,-0.229004,-0.926758,-0.288574,-0.183105,-0.122070,0.061035,21.00,0
869407957,22238.248530,1777901069.844000,-471,-1896,-590,-3,-2,1,-0.229980,-0.925781,-0.288086,-0.183105,-0.122070,0.061035,21.35,1
869408968,22238.248538,1777901069.845010,-470,-1896,-588,-3,-1,0,-0.229492,-0.925781,-0.287109,-0.183105,-0.061035,0.000000,21.24,0
869409980,22238.248544,1777901069.846022,-468,-1896,-588,-3,-1,-1,-0.228516,-0.925781,-0.287109,-0.183105,-0.061035,-0.061035,21.36,0
869410994,22238.248550,1777901069.847035,-467,-1897,-588,-4,-1,-1,-0.228027,-0.926270,-0.287109,-0.244141,-0.061035,-0.061035,21.38,0
869412007,22238.248557,1777901069.848047,-469,-1898,-592,-4,-2,-1,-0.229004,-0.926758,-0.289062,-0.244141,-0.122070,-0.061035,21.04,0
869413018,22238.256582,1777901069.849058,-470,-1898,-593,-3,-2,0,-0.229492,-0.926758,-0.289551,-0.183105,-0.122070,0.000000,21.20,0
869414031,22238.256596,1777901069.850070,-471,-1896,-589,-3,-1,0,-0.229980,-0.925781,-0.287598,-0.183105,-0.061035,0.000000,21.29,0
869415044,22238.256602,1777901069.851082,-472,-1895,-589,-3,-2,-1,-0.230469,-0.925293,-0.287598,-0.183105,-0.122070,-0.061035,21.26,0
869416054,22238.256609,1777901069.852092,-469,-1895,-592,-3,-2,-1,-0.229004,-0.925293,-0.289062,-0.183105,-0.122070,-0.061035,21.23,0
869417068,22238.256616,1777901069.853105,-466,-1894,-591,-3,-1,-1,-0.227539,-0.924805,-0.288574,-0.183105,-0.061035,-0.061035,21.20,0
869418078,22238.256622,1777901069.854115,-467,-1896,-590,-2,-1,0,-0.228027,-0.925781,-0.288086,-0.122070,-0.061035,0.000000,21.18,0
869419098,22238.256629,1777901069.855134,-467,-1899,-592,-3,-1,0,-0.228027,-0.927246,-0.289062,-0.183105,-0.061035,0.000000,21.12,1
869420103,22238.256635,1777901069.856138,-468,-1898,-591,-4,-1,0,-0.228516,-0.926758,-0.288574,-0.244141,-0.061035,0.000000,21.20,0
869421116,22238.264706,1777901069.857148,-468,-1896,-590,-4,-1,0,-0.228516,-0.925781,-0.288086,-0.244141,-0.061035,0.000000,21.20,0
869422128,22238.264728,1777901069.858159,-468,-1899,-589,-4,-1,-1,-0.228516,-0.927246,-0.287598,-0.244141,-0.061035,-0.061035,21.18,0
869423140,22238.264735,1777901069.859171,-467,-1901,-587,-3,-1,-1,-0.228027,-0.928223,-0.286621,-0.183105,-0.061035,-0.061035,21.18,0
869424151,22238.264741,1777901069.860181,-467,-1898,-587,-3,-1,0,-0.228027,-0.926758,-0.286621,-0.183105,-0.061035,0.000000,21.29,0
869425164,22238.264748,1777901069.861193,-469,-1897,-589,-4,-1,0,-0.229004,-0.926270,-0.287598,-0.244141,-0.061035,0.000000,21.14,0
869426177,22238.264754,1777901069.862206,-470,-1898,-589,-4,-1,0,-0.229492,-0.926758,-0.287598,-0.244141,-0.061035,0.000000,21.18,0
869427191,22238.264760,1777901069.863219,-468,-1896,-589,-3,0,1,-0.228516,-0.925781,-0.287598,-0.183105,0.000000,0.061035,21.20,0
869428203,22238.264767,1777901069.864230,-467,-1894,-589,-3,0,1,-0.228027,-0.924805,-0.287598,-0.183105,0.000000,0.061035,21.07,0
869429214,22238.272782,1777901069.865241,-468,-1894,-589,-3,-1,0,-0.228516,-0.924805,-0.287598,-0.183105,-0.061035,0.000000,21.23,0
869430225,22238.272797,1777901069.866251,-469,-1896,-591,-3,-2,0,-0.229004,-0.925781,-0.288574,-0.183105,-0.122070,0.000000,21.18,1
869431239,22238.272808,1777901069.867265,-465,-1897,-595,-3,-2,0,-0.227051,-0.926270,-0.290527,-0.183105,-0.122070,0.000000,21.27,0
869432252,22238.272818,1777901069.868277,-465,-1897,-593,-3,-2,-1,-0.227051,-0.926270,-0.289551,-0.183105,-0.122070,-0.061035,21.11,0
869433263,22238.272828,1777901069.869287,-467,-1898,-589,-4,-1,-1,-0.228027,-0.926758,-0.287598,-0.244141,-0.061035,-0.061035,21.29,0
869434277,22238.272838,1777901069.870301,-466,-1898,-589,-4,0,-1,-0.227539,-0.926758,-0.287598,-0.244141,0.000000,-0.061035,21.15,0
869435288,22238.272848,1777901069.871311,-466,-1896,-592,-4,0,-1,-0.227539,-0.925781,-0.289062,-0.244141,0.000000,-0.061035,21.32,0
869436299,22238.272858,1777901069.872321,-468,-1895,-592,-3,-1,0,-0.228516,-0.925293,-0.289062,-0.183105,-0.061035,0.000000,21.27,0
869437311,22238.280920,1777901069.873333,-468,-1897,-589,-3,-2,0,-0.228516,-0.926270,-0.287598,-0.183105,-0.122070,0.000000,21.15,0
869438325,22238.280967,1777901069.874346,-470,-1898,-586,-3,-1,0,-0.229492,-0.926758,-0.286133,-0.183105,-0.061035,0.000000,21.23,0
869439337,22238.280984,1777901069.875357,-471,-1897,-588,-2,0,-1,-0.229980,-0.926270,-0.287109,-0.122070,0.000000,-0.061035,21.30,0
869440347,22238.280997,1777901069.876366,-470,-1898,-589,-3,-1,-1,-0.229492,-0.926758,-0.287598,-0.183105,-0.061035,-0.061035,21.30,0
869441361,22238.281019,1777901069.877380,-472,-1899,-587,-4,-1,-1,-0.230469,-0.927246,-0.286621,-0.244141,-0.061035,-0.061035,21.27,1
869442374,22238.281035,1777901069.878392,-470,-1899,-588,-4,-2,0,-0.229492,-0.927246,-0.287109,-0.244141,-0.122070,0.000000,21.23,0
869443386,22238.281047,1777901069.879403,-466,-1896,-592,-3,-2,0,-0.227539,-0.925781,-0.289062,-0.183105,-0.122070,0.000000,21.12,0
869444397,22238.281059,1777901069.880414,-466,-1895,-590,-3,-2,-1,-0.227539,-0.925293,-0.288086,-0.183105,-0.122070,-0.061035,21.21,0
869445411,22238.288991,1777901069.881428,-467,-1899,-587,-3,-2,-1,-0.228027,-0.927246,-0.286621,-0.183105,-0.122070,-0.061035,21.36,0
869446423,22238.289010,1777901069.882439,-469,-1898,-590,-3,-2,0,-0.229004,-0.926758,-0.288086,-0.183105,-0.122070,0.000000,21.20,0
869447435,22238.289017,1777901069.883451,-469,-1895,-591,-3,-1,1,-0.229004,-0.925293,-0.288574,-0.183105,-0.061035,0.061035,21.32,0
869448447,22238.289024,1777901069.884462,-467,-1896,-592,-4,-1,0,-0.228027,-0.925781,-0.289062,-0.244141,-0.061035,0.000000,21.17,0
869449459,22238.289030,1777901069.885473,-468,-1897,-593,-4,-1,-1,-0.228516,-0.926270,-0.289551,-0.244141,-0.061035,-0.061035,21.12,0
869450470,22238.289037,1777901069.886483,-467,-1900,-594,-3,-2,-1,-0.228027,-0.927734,-0.290039,-0.183105,-0.122070,-0.061035,21.26,0
869451484,22238.289043,1777901069.887497,-463,-1901,-594,-3,-1,0,-0.226074,-0.928223,-0.290039,-0.183105,-0.061035,0.000000,21.27,0
869452495,22238.289050,1777901069.888507,-466,-1899,-590,-3,-1,0,-0.227539,-0.927246,-0.288086,-0.183105,-0.061035,0.000000,21.39,1
869453507,22238.297071,1777901069.889517,-471,-1899,-588,-3,-1,0,-0.229980,-0.927246,-0.287109,-0.183105,-0.061035,0.000000,21.26,0
869454519,22238.297086,1777901069.890529,-469,-1900,-593,-3,-2,0,-0.229004,-0.927734,-0.289551,-0.183105,-0.122070,0.000000,21.35,0
869455533,22238.297093,1777901069.891542,-467,-1899,-597,-4,-2,0,-0.228027,-0.927246,-0.291504,-0.244141,-0.122070,0.000000,21.32,0
869456546,22238.297100,1777901069.892554,-468,-1898,-592,-5,-2,0,-0.228516,-0.926758,-0.289062,-0.305176,-0.122070,0.000000,21.14,0
869457558,22238.297106,1777901069.893566,-466,-1897,-589,-4,-2,0,-0.227539,-0.926270,-0.287598,-0.244141,-0.122070,0.000000,21.15,0
869458569,22238.297113,1777901069.894576,-465,-1897,-590,-3,-1,-1,-0.227051,-0.926270,-0.288086,-0.183105,-0.061035,-0.061035,21.27,0
869459581,22238.297120,1777901069.895587,-467,-1897,-588,-3,0,-1,-0.228027,-0.926270,-0.287109,-0.183105,0.000000,-0.061035,21.11,0
869460595,22238.297126,1777901069.896600,-470,-1900,-589,-4,-1,-1,-0.229492,-0.927734,-0.287598,-0.244141,-0.061035,-0.061035,21.17,0
869461606,22238.305330,1777901069.897611,-471,-1903,-592,-4,-1,0,-0.229980,-0.929199,-0.289062,-0.244141,-0.061035,0.000000,21.18,0
869462617,22238.305351,1777901069.898621,-470,-1900,-588,-4,-1,0,-0.229492,-0.927734,-0.287109,-0.244141,-0.061035,0.000000,21.17,0
869463629,22238.305362,1777901069.899633,-471,-1894,-586,-4,-1,-1,-0.229980,-0.924805,-0.286133,-0.244141,-0.061035,-0.061035,21.35,1
869464644,22238.305374,1777901069.900647,-472,-1894,-591,-3,0,-1,-0.230469,-0.924805,-0.288574,-0.183105,0.000000,-0.061035,21.27,0
869465655,22238.305384,1777901069.901657,-471,-1898,-593,-2,-1,-1,-0.229980,-0.926758,-0.289551,-0.122070,-0.061035,-0.061035,21.11,0
869466667,22238.305394,1777901069.902669,-468,-1899,-589,-3,-2,0,-0.228516,-0.927246,-0.287598,-0.183105,-0.122070,0.000000,21.20,0
869467681,22238.305404,1777901069.903682,-467,-1898,-593,-4,-1,-1,-0.228027,-0.926758,-0.289551,-0.244141,-0.061035,-0.061035,21.26,0
869468692,22238.305414,1777901069.904692,-466,-1898,-596,-4,-1,-1,-0.227539,-0.926758,-0.291016,-0.244141,-0.061035,-0.061035,21.17,0
869469705,22238.313324,1777901069.905704,-468,-1897,-588,-3,-1,0,-0.228516,-0.926270,-0.287109,-0.183105,-0.061035,0.000000,21.15,0
869470717,22238.313335,1777901069.906716,-470,-1893,-588,-3,-1,0,-0.229492,-0.924316,-0.287109,-0.183105,-0.061035,0.000000,21.18,0
869471730,22238.313343,1777901069.907728,-469,-1894,-594,-3,-2,0,-0.229004,-0.924805,-0.290039,-0.183105,-0.122070,0.000000,21.09,0
869472741,22238.313350,1777901069.908739,-468,-1898,-592,-3,-1,0,-0.228516,-0.926758,-0.289062,-0.183105,-0.061035,0.000000,21.17,0
869473754,22238.313357,1777901069.909751,-468,-1901,-587,-3,-1,-1,-0.228516,-0.928223,-0.286621,-0.183105,-0.061035,-0.061035,21.26,0
869474766,22238.313363,1777901069.910762,-466,-1898,-586,-3,-1,-1,-0.227539,-0.926758,-0.286133,-0.183105,-0.061035,-0.061035,21.23,1
869475779,22238.313370,1777901069.911775,-465,-1892,-587,-2,-1,-1,-0.227051,-0.923828,-0.286621,-0.122070,-0.061035,-0.061035,21.14,0
869476789,22238.313377,1777901069.912784,-470,-1895,-589,-2,-1,0,-0.229492,-0.925293,-0.287598,-0.122070,-0.061035,0.000000,21.20,0
869477802,22238.322102,1777901069.913797,-470,-1899,-589,-2,-1,0,-0.229492,-0.927246,-0.287598,-0.122070,-0.061035,0.000000,21.29,0
869478816,22238.322115,1777901069.914810,-465,-1901,-588,-4,-2,0,-0.227051,-0.928223,-0.287109,-0.244141,-0.122070,0.000000,21.17,0
869479827,22238.322122,1777901069.915821,-465,-1902,-589,-4,-1,0,-0.227051,-0.928711,-0.287598,-0.244141,-0.061035,0.000000,21.24,0
869480838,22238.322129,1777901069.916831,-469,-1898,-590,-4,-1,0,-0.229004,-0.926758,-0.288086,-0.244141,-0.061035,0.000000,21.14,0
869481850,22238.322135,1777901069.917842,-470,-1895,-587,-3,-2,0,-0.229492,-0.925293,-0.286621,-0.183105,-0.122070,0.000000,21.17,0
869482863,22238.322142,1777901069.918855,-467,-1894,-587,-2,-2,0,-0.228027,-0.924805,-0.286621,-0.122070,-0.122070,0.000000,21.27,0
869483877,22238.322148,1777901069.919868,-468,-1896,-590,-2,-1,1,-0.228516,-0.925781,-0.288086,-0.122070,-0.061035,0.061035,21.21,0
869484889,22238.322155,1777901069.920879,-470,-1900,-588,-3,-1,0,-0.229492,-0.927734,-0.287109,-0.183105,-0.061035,0.000000,21.14,0
869485901,22238.329513,1777901069.921892,-469,-1897,-587,-3,-1,-1,-0.229004,-0.926270,-0.286621,-0.183105,-0.061035,-0.061035,21.26,1
869486912,22238.329527,1777901069.922902,-469,-1899,-590,-3,-1,0,-0.229004,-0.927246,-0.288086,-0.183105,-0.061035,0.000000,21.20,0
869487924,22238.329534,1777901069.923914,-469,-1902,-595,-3,-1,0,-0.229004,-0.928711,-0.290527,-0.183105,-0.061035,0.000000,21.06,0
869488938,22238.329540,1777901069.924927,-468,-1897,-594,-3,-1,-1,-0.228516,-0.926270,-0.290039,-0.183105,-0.061035,-0.061035,21.17,0
869489951,22238.329547,1777901069.925939,-468,-1897,-590,-3,-1,-1,-0.228516,-0.926270,-0.288086,-0.183105,-0.061035,-0.061035,21.11,0
869490961,22238.329553,1777901069.926949,-470,-1900,-588,-2,-1,0,-0.229492,-0.927734,-0.287109,-0.122070,-0.061035,0.000000,21.33,0
869491975,22238.329560,1777901069.927962,-470,-1898,-591,-2,-1,0,-0.229492,-0.926758,-0.288574,-0.122070,-0.061035,0.000000,21.35,0
869492987,22238.329567,1777901069.928973,-466,-1898,-592,-3,-1,0,-0.227539,-0.926758,-0.289062,-0.183105,-0.061035,0.000000,21.07,0
869493998,22238.337569,1777901069.929984,-465,-1897,-589,-4,-2,1,-0.227051,-0.926270,-0.287598,-0.244141,-0.122070,0.061035,21.29,0
869495012,22238.337589,1777901069.930997,-468,-1898,-587,-4,-2,0,-0.228516,-0.926758,-0.286621,-0.244141,-0.122070,0.000000,21.04,0
869496023,22238.337599,1777901069.932007,-471,-1899,-590,-2,-1,-1,-0.229980,-0.927246,-0.288086,-0.122070,-0.061035,-0.061035,21.11,0
869497034,22238.337609,1777901069.933018,-471,-1897,-592,-2,-2,-1,-0.229980,-0.926270,-0.289062,-0.122070,-0.122070,-0.061035,21.20,1
869498046,22238.337619,1777901069.934029,-469,-1896,-590,-2,-1,-1,-0.229004,-0.925781,-0.288086,-0.122070,-0.061035,-0.061035,21.23,0
869499060,22238.337629,1777901069.935043,-469,-1897,-589,-3,-1,0,-0.229004,-0.926270,-0.287598,-0.183105,-0.061035,0.000000,21.29,0
869500071,22238.337638,1777901069.936053,-468,-1896,-590,-3,-1,0,-0.228516,-0.925781,-0.288086,-0.183105,-0.061035,0.000000,21.32,0
869501095,22238.337647,1777901069.937076,-469,-1895,-596,-3,-1,0,-0.229004,-0.925293,-0.291016,-0.183105,-0.061035,0.000000,21.17,0
869502099,22238.345661,1777901069.938080,-470,-1895,-597,-2,-1,-1,-0.229492,-0.925293,-0.291504,-0.122070,-0.061035,-0.061035,21.17,0
869503108,22238.345674,1777901069.939088,-470,-1896,-590,-3,-1,0,-0.229492,-0.925781,-0.288086,-0.183105,-0.061035,0.000000,21.20,0
869504121,22238.345681,1777901069.940100,-469,-1898,-590,-3,-1,0,-0.229004,-0.926758,-0.288086,-0.183105,-0.061035,0.000000,21.32,0
869505134,22238.345687,1777901069.941113,-467,-1898,-595,-3,-2,0,-0.228027,-0.926758,-0.290527,-0.183105,-0.122070,0.000000,21.26,0
869506147,22238.345694,1777901069.942125,-467,-1898,-594,-3,-1,-1,-0.228027,-0.926758,-0.290039,-0.183105,-0.061035,-0.061035,21.26,0
869507158,22238.345700,1777901069.943135,-467,-1898,-587,-3,-1,-1,-0.228027,-0.926758,-0.286621,-0.183105,-0.061035,-0.061035,21.17,0
869508169,22238.345707,1777901069.944146,-469,-1897,-587,-4,-1,-1,-0.229004,-0.926270,-0.286621,-0.244141,-0.061035,-0.061035,21.11,1
869509182,22238.345714,1777901069.945158,-469,-1896,-594,-4,-1,-1,-0.229004,-0.925781,-0.290039,-0.244141,-0.061035,-0.061035,21.18,0
869510195,22238.353753,1777901069.946170,-467,-1898,-592,-3,-1,-1,-0.228027,-0.926758,-0.289062,-0.183105,-0.061035,-0.061035,21.38,0
869511206,22238.353765,1777901069.947181,-464,-1895,-587,-3,-1,0,-0.226562,-0.925293,-0.286621,-0.183105,-0.061035,0.000000,21.26,0
869512218,22238.353772,1777901069.948192,-465,-1895,-591,-3,-1,0,-0.227051,-0.925293,-0.288574,-0.183105,-0.061035,0.000000,21.17,0
869513232,22238.353778,1777901069.949205,-468,-1900,-592,-4,-1,1,-0.228516,-0.927734,-0.289062,-0.244141,-0.061035,0.061035,21.27,0
869514243,22238.353785,1777901069.950216,-468,-1901,-588,-4,0,0,-0.228516,-0.928223,-0.287109,-0.244141,0.000000,0.000000,21.21,0
869515257,22238.353791,1777901069.951229,-467,-1894,-589,-3,-1,0,-0.228027,-0.924805,-0.287598,-0.183105,-0.061035,0.000000,21.07,0
869516267,22238.353798,1777901069.952239,-468,-1892,-592,-3,-3,-1,-0.228516,-0.923828,-0.289062,-0.183105,-0.183105,-0.061035,21.27,0
869517280,22238.353804,1777901069.953251,-469,-1897,-592,-3,-2,0,-0.229004,-0.926270,-0.289062,-0.183105,-0.122070,0.000000,21.18,0
869518292,22238.361877,1777901069.954262,-469,-1898,-593,-3,-2,1,-0.229004,-0.926758,-0.289551,-0.183105,-0.122070,0.061035,21.23,0
869519305,22238.361893,1777901069.955274,-467,-1899,-593,-3,-1,0,-0.228027,-0.927246,-0.289551,-0.183105,-0.061035,0.000000,21.11,1
869520316,22238.361904,1777901069.956285,-468,-1901,-589,-3,-2,-1,-0.228516,-0.928223,-0.287598,-0.183105,-0.122070,-0.061035,21.09,0
869521329,22238.361914,1777901069.957297,-470,-1902,-588,-2,-1,-1,-0.229492,-0.928711,-0.287109,-0.122070,-0.061035,-0.061035,21.24,0
869522340,22238.361924,1777901069.958307,-468,-1902,-591,-2,-1,0,-0.228516,-0.928711,-0.288574,-0.122070,-0.061035,0.000000,21.12,0
869523354,22238.361934,1777901069.959321,-467,-1896,-592,-3,-1,-1,-0.228027,-0.925781,-0.289062,-0.183105,-0.061035,-0.061035,21.23,0
869524366,22238.361991,1777901069.960332,-468,-1893,-591,-3,0,-1,-0.228516,-0.924316,-0.288574,-0.183105,0.000000,-0.061035,21.32,0
869525377,22238.362007,1777901069.961342,-469,-1895,-590,-4,-1,-1,-0.229004,-0.925293,-0.288086,-0.244141,-0.061035,-0.061035,21.15,0
869526392,22238.370022,1777901069.962357,-468,-1896,-590,-3,-2,0,-0.228516,-0.925781,-0.288086,-0.183105,-0.122070,0.000000,21.18,0
869527404,22238.370036,1777901069.963368,-469,-1898,-590,-3,-1,0,-0.229004,-0.926758,-0.288086,-0.183105,-0.061035,0.000000,21.24,0
869528414,22238.370043,1777901069.964377,-468,-1899,-593,-3,-1,0,-0.228516,-0.927246,-0.289551,-0.183105,-0.061035,0.000000,21.14,0
869529428,22238.370049,1777901069.965391,-467,-1896,-596,-4,-2,-1,-0.228027,-0.925781,-0.291016,-0.244141,-0.122070,-0.061035,21.12,0
869530440,22238.370056,1777901069.966402,-468,-1896,-592,-3,-3,-1,-0.228516,-0.925781,-0.289062,-0.183105,-0.183105,-0.061035,21.32,1
869531451,22238.370064,1777901069.967412,-470,-1899,-590,-3,-2,-1,-0.229492,-0.927246,-0.288086,-0.183105,-0.122070,-0.061035,21.17,0
869532465,22238.370070,1777901069.968426,-470,-1898,-588,-3,-2,-1,-0.229492,-0.926758,-0.287109,-0.183105,-0.122070,-0.061035,21.23,0
869533477,22238.370077,1777901069.969437,-469,-1899,-585,-3,-1,0,-0.229004,-0.927246,-0.285645,-0.183105,-0.061035,0.000000,21.24,0
869534488,22238.378041,1777901069.970446,-468,-1901,-591,-3,0,-1,-0.228516,-0.928223,-0.288574,-0.183105,0.000000,-0.061035,21.27,0
869535501,22238.378057,1777901069.971458,-470,-1898,-594,-3,0,0,-0.229492,-0.926758,-0.290039,-0.183105,0.000000,0.000000,21.21,0
869536512,22238.378064,1777901069.972469,-472,-1895,-592,-3,-1,1,-0.230469,-0.925293,-0.289062,-0.183105,-0.061035,0.061035,21.14,0
869537526,22238.378072,1777901069.973482,-470,-1898,-590,-3,0,1,-0.229492,-0.926758,-0.288086,-0.183105,0.000000,0.061035,21.24,0
869538537,22238.378078,1777901069.974492,-470,-1901,-590,-3,0,0,-0.229492,-0.928223,-0.288086,-0.183105,0.000000,0.000000,21.26,0
869539549,22238.378085,1777901069.975503,-470,-1898,-589,-2,0,0,-0.229492,-0.926758,-0.287598,-0.122070,0.000000,0.000000,21.27,0
869540562,22238.378092,1777901069.976516,-468,-1894,-586,-3,-1,1,-0.228516,-0.924805,-0.286133,-0.183105,-0.061035,0.061035,21.35,0
869541575,22238.378099,1777901069.977528,-467,-1896,-586,-3,-1,1,-0.228027,-0.925781,-0.286133,-0.183105,-0.061035,0.061035,21.11,1
869542587,22238.386133,1777901069.978541,-467,-1896,-591,-4,-1,1,-0.228027,-0.925781,-0.288574,-0.244141,-0.061035,0.061035,21.14,0
869543599,22238.386166,1777901069.979552,-468,-1894,-593,-3,-1,-1,-0.228516,-0.924805,-0.289551,-0.183105,-0.061035,-0.061035,21.11,0
869544611,22238.386177,1777901069.980563,-468,-1897,-592,-2,-1,-1,-0.228516,-0.926270,-0.289062,-0.122070,-0.061035,-0.061035,21.15,0
869545623,22238.386188,1777901069.981575,-470,-1898,-595,-3,-1,0,-0.229492,-0.926758,-0.290527,-0.183105,-0.061035,0.000000,21.11,0
869546635,22238.386199,1777901069.982586,-467,-1896,-596,-3,-2,0,-0.228027,-0.925781,-0.291016,-0.183105,-0.122070,0.000000,21.23,0
869547647,22238.386209,1777901069.983597,-466,-1896,-591,-3,-2,-1,-0.227539,-0.925781,-0.288574,-0.183105,-0.122070,-0.061035,21.23,0
869548661,22238.386220,1777901069.984611,-468,-1898,-589,-3,-1,0,-0.228516,-0.926758,-0.287598,-0.183105,-0.061035,0.000000,21.29,0
869549672,22238.386230,1777901069.985621,-467,-1898,-589,-3,-1,0,-0.228027,-0.926758,-0.287598,-0.183105,-0.061035,0.000000,21.23,0
869550684,22238.394326,1777901069.986632,-469,-1899,-587,-3,-1,0,-0.229004,-0.927246,-0.286621,-0.183105,-0.061035,0.000000,21.07,0
869551696,22238.394353,1777901069.987644,-470,-1901,-593,-2,0,-1,-0.229492,-0.928223,-0.289551,-0.122070,0.000000,-0.061035,21.30,0
869552709,22238.394364,1777901069.988657,-468,-1898,-600,-2,0,-1,-0.228516,-0.926758,-0.292969,-0.122070,0.000000,-0.061035,21.36,1
869553722,22238.394376,1777901069.989669,-468,-1896,-593,-3,-1,0,-0.228516,-0.925781,-0.289551,-0.183105,-0.061035,0.000000,21.23,0
869554733,22238.394387,1777901069.990680,-471,-1898,-589,-4,-2,0,-0.229980,-0.926758,-0.287598,-0.244141,-0.122070,0.000000,21.17,0
869555747,22238.394397,1777901069.991693,-470,-1899,-593,-4,-2,0,-0.229492,-0.927246,-0.289551,-0.244141,-0.122070,0.000000,21.12,0
869556758,22238.394407,1777901069.992703,-468,-1898,-593,-3,-1,-1,-0.228516,-0.926758,-0.289551,-0.183105,-0.061035,-0.061035,21.12,0
869557769,22238.394417,1777901069.993714,-467,-1898,-592,-3,-1,-1,-0.228027,-0.926758,-0.289062,-0.183105,-0.061035,-0.061035,21.15,0
869558784,22238.402331,1777901069.994728,-468,-1900,-593,-3,-1,0,-0.228516,-0.927734,-0.289551,-0.183105,-0.061035,0.000000,21.50,0
869559795,22238.402343,1777901069.995738,-469,-1898,-593,-3,-1,-1,-0.229004,-0.926758,-0.289551,-0.183105,-0.061035,-0.061035,21.21,0
869560808,22238.402350,1777901069.996751,-470,-1896,-591,-3,-1,-1,-0.229492,-0.925781,-0.288574,-0.183105,-0.061035,-0.061035,21.04,0
869561818,22238.402357,1777901069.997760,-470,-1895,-592,-2,0,0,-0.229492,-0.925293,-0.289062,-0.122070,0.000000,0.000000,21.30,0
869562832,22238.402363,1777901069.998773,-468,-1896,-591,-2,0,0,-0.228516,-0.925781,-0.288574,-0.122070,0.000000,0.000000,21.14,0
869563845,22238.402370,1777901069.999786,-468,-1898,-588,-4,-1,-1,-0.228516,-0.926758,-0.287109,-0.244141,-0.061035,-0.061035,21.17,1
869564856,22238.402377,1777901070.000796,-468,-1899,-589,-4,-1,0,-0.228516,-0.927246,-0.287598,-0.244141,-0.061035,0.000000,21.23,0
869565870,22238.402384,1777901070.001809,-467,-1899,-589,-4,0,0,-0.228027,-0.927246,-0.287598,-0.244141,0.000000,0.000000,21.04,0
869566882,22238.410449,1777901070.002821,-466,-1897,-590,-4,-1,0,-0.227539,-0.926270,-0.288086,-0.244141,-0.061035,0.000000,21.17,0
869567893,22238.410469,1777901070.003831,-470,-1896,-592,-3,-2,-1,-0.229492,-0.925781,-0.289062,-0.183105,-0.122070,-0.061035,21.24,0
869568906,22238.410477,1777901070.004844,-472,-1897,-592,-2,-1,-1,-0.230469,-0.926270,-0.289062,-0.122070,-0.061035,-0.061035,21.17,0
869569916,22238.410484,1777901070.005853,-467,-1895,-592,-3,-1,-1,-0.228027,-0.925293,-0.289062,-0.183105,-0.061035,-0.061035,21.30,0
869570930,22238.410491,1777901070.006866,-466,-1895,-594,-3,-1,0,-0.227539,-0.925293,-0.290039,-0.183105,-0.061035,0.000000,21.14,0
869571942,22238.410498,1777901070.007878,-469,-1896,-595,-3,-1,1,-0.229004,-0.925781,-0.290527,-0.183105,-0.061035,0.061035,21.26,0
869572955,22238.410504,1777901070.008890,-469,-1898,-590,-4,-1,0,-0.229004,-0.926758,-0.288086,-0.244141,-0.061035,0.000000,21.14,0
869573967,22238.410511,1777901070.009902,-465,-1901,-587,-4,-1,-1,-0.227051,-0.928223,-0.286621,-0.244141,-0.061035,-0.061035,21.14,0
869574980,22238.418573,1777901070.010913,-466,-1895,-592,-4,-1,-1,-0.227539,-0.925293,-0.289062,-0.244141,-0.061035,-0.061035,21.18,1
869575992,22238.418599,1777901070.011924,-470,-1894,-592,-3,-2,0,-0.229492,-0.924805,-0.289062,-0.183105,-0.122070,0.000000,21.26,0
869577003,22238.418611,1777901070.012935,-470,-1901,-588,-3,-2,0,-0.229492,-0.928223,-0.287109,-0.183105,-0.122070,0.000000,21.18,0
869578016,22238.418621,1777901070.013947,-467,-1901,-588,-3,0,0,-0.228027,-0.928223,-0.287109,-0.183105,0.000000,0.000000,21.44,0
869579028,22238.418633,1777901070.014958,-468,-1897,-588,-4,0,-1,-0.228516,-0.926270,-0.287109,-0.244141,0.000000,-0.061035,21.41,0
869580041,22238.418644,1777901070.015971,-470,-1898,-587,-4,-1,-1,-0.229492,-0.926758,-0.286621,-0.244141,-0.061035,-0.061035,21.26,0
869581053,22238.418654,1777901070.016982,-469,-1899,-588,-3,-1,0,-0.229004,-0.927246,-0.287109,-0.183105,-0.061035,0.000000,21.23,0
869582065,22238.418663,1777901070.017993,-467,-1896,-593,-3,0,0,-0.228027,-0.925781,-0.289551,-0.183105,0.000000,0.000000,21.17,0
869583078,22238.426647,1777901070.019006,-467,-1896,-594,-3,0,0,-0.228027,-0.925781,-0.290039,-0.183105,0.000000,0.000000,21.12,0
869584096,22238.426670,1777901070.020023,-468,-1900,-591,-3,-1,-1,-0.228516,-0.927734,-0.288574,-0.183105,-0.061035,-0.061035,21.17,0
869585104,22238.426681,1777901070.021030,-466,-1900,-591,-3,0,-2,-0.227539,-0.927734,-0.288574,-0.183105,0.000000,-0.122070,21.17,0
869586112,22238.426692,1777901070.022038,-464,-1897,-591,-2,0,-1,-0.226562,-0.926270,-0.288574,-0.122070,0.000000,-0.061035,21.17,1
869587127,22238.426746,1777901070.023053,-466,-1897,-593,-2,-1,1,-0.227539,-0.926270,-0.289551,-0.122070,-0.061035,0.061035,21.27,0
869588138,22238.426757,1777901070.024063,-468,-1897,-595,-2,-2,0,-0.228516,-0.926270,-0.290527,-0.122070,-0.122070,0.000000,21.23,0
869589151,22238.426768,1777901070.025075,-469,-1895,-592,-3,-1,0,-0.229004,-0.925293,-0.289062,-0.183105,-0.061035,0.000000,21.24,0
869590163,22238.426778,1777901070.026087,-467,-1898,-590,-4,0,1,-0.228027,-0.926758,-0.288086,-0.244141,0.000000,0.061035,21.30,0
869591176,22238.435181,1777901070.027099,-467,-1899,-590,-4,-1,0,-0.228027,-0.927246,-0.288086,-0.244141,-0.061035,0.000000,21.07,0
869592186,22238.435205,1777901070.028108,-469,-1895,-592,-3,-2,-1,-0.229004,-0.925293,-0.289062,-0.183105,-0.122070,-0.061035,21.18,0
869593201,22238.435217,1777901070.029123,-469,-1897,-593,-4,-1,-1,-0.229004,-0.926270,-0.289551,-0.244141,-0.061035,-0.061035,21.26,0
869594212,22238.435227,1777901070.030133,-467,-1896,-589,-4,-1,0,-0.228027,-0.925781,-0.287598,-0.244141,-0.061035,0.000000,21.20,0
869595224,22238.435238,1777901070.031144,-465,-1894,-589,-4,-1,0,-0.227051,-0.924805,-0.287598,-0.244141,-0.061035,0.000000,21.18,0
869596235,22238.435248,1777901070.032155,-465,-1898,-592,-3,-1,-1,-0.227051,-0.926758,-0.289062,-0.183105,-0.061035,-0.061035,21.12,0
869597247,22238.435259,1777901070.033166,-468,-1900,-591,-3,-1,-1,-0.228516,-0.927734,-0.288574,-0.183105,-0.061035,-0.061035,21.32,1
869598260,22238.435270,1777901070.034178,-469,-1899,-589,-3,-1,-2,-0.229004,-0.927246,-0.287598,-0.183105,-0.061035,-0.122070,21.07,0
869599272,22238.442929,1777901070.035191,-469,-1899,-591,-4,-2,-1,-0.229004,-0.927246,-0.288574,-0.244141,-0.122070,-0.061035,21.30,0
869600286,22238.442949,1777901070.036204,-469,-1900,-593,-4,-1,-1,-0.229004,-0.927734,-0.289551,-0.244141,-0.061035,-0.061035,21.23,0
869601296,22238.442959,1777901070.037213,-467,-1897,-593,-3,-1,-1,-0.228027,-0.926270,-0.289551,-0.183105,-0.061035,-0.061035,21.20,0
869602309,22238.442970,1777901070.038225,-468,-1893,-594,-3,-2,0,-0.228516,-0.924316,-0.290039,-0.183105,-0.122070,0.000000,21.12,0
869603321,22238.442980,1777901070.039237,-472,-1893,-593,-3,-2,1,-0.230469,-0.924316,-0.289551,-0.183105,-0.122070,0.061035,21.24,0
869604336,22238.442991,1777901070.040251,-471,-1897,-590,-3,-2,0,-0.229980,-0.926270,-0.288086,-0.183105,-0.122070,0.000000,21.35,0
869605347,22238.443008,1777901070.041261,-467,-1899,-589,-3,-1,-2,-0.228027,-0.927246,-0.287598,-0.183105,-0.061035,-0.122070,21.11,0
869606359,22238.443018,1777901070.042273,-467,-1896,-592,-3,-1,-1,-0.228027,-0.925781,-0.289062,-0.183105,-0.061035,-0.061035,21.11,0
869607372,22238.451332,1777901070.043285,-469,-1897,-593,-2,-1,0,-0.229004,-0.926270,-0.289551,-0.122070,-0.061035,0.000000,21.21,0
869608384,22238.451355,1777901070.044296,-468,-1899,-591,-2,-1,0,-0.228516,-0.927246,-0.288574,-0.122070,-0.061035,0.000000,21.17,1
869609396,22238.451366,1777901070.045308,-468,-1897,-590,-2,-2,0,-0.228516,-0.926270,-0.288086,-0.122070,-0.122070,0.000000,21.33,0
869610409,22238.451376,1777901070.046320,-468,-1896,-590,-4,-2,0,-0.228516,-0.925781,-0.288086,-0.244141,-0.122070,0.000000,21.29,0
869611419,22238.451387,1777901070.047329,-468,-1896,-588,-4,-2,-1,-0.228516,-0.925781,-0.287109,-0.244141,-0.122070,-0.061035,21.09,0
869612432,22238.451397,1777901070.048342,-469,-1895,-590,-3,-1,0,-0.229004,-0.925293,-0.288086,-0.183105,-0.061035,0.000000,21.26,0
869613445,22238.451407,1777901070.049354,-467,-1897,-592,-3,0,1,-0.228027,-0.926270,-0.289062,-0.183105,0.000000,0.061035,21.07,0
869614458,22238.451417,1777901070.050366,-466,-1899,-591,-4,-1,0,-0.227539,-0.927246,-0.288574,-0.244141,-0.061035,0.000000,21.23,0
869615470,22238.459044,1777901070.051378,-466,-1897,-589,-4,-2,-1,-0.227539,-0.926270,-0.287598,-0.244141,-0.122070,-0.061035,21.17,0
869616481,22238.459070,1777901070.052388,-467,-1895,-590,-3,-1,-2,-0.228027,-0.925293,-0.288086,-0.183105,-0.061035,-0.122070,21.33,0
869617493,22238.459080,1777901070.053399,-467,-1895,-591,-3,-1,-1,-0.228027,-0.925293,-0.288574,-0.183105,-0.061035,-0.061035,21.24,0
869618507,22238.459089,1777901070.054413,-467,-1895,-588,-3,-1,0,-0.228027,-0.925293,-0.287109,-0.183105,-0.061035,0.000000,21.35,0
869619519,22238.459098,1777901070.055424,-467,-1899,-586,-3,-1,0,-0.228027,-0.927246,-0.286133,-0.183105,-0.061035,0.000000,21.11,1
869620529,22238.459108,1777901070.056433,-472,-1900,-589,-3,-1,0,-0.230469,-0.927734,-0.287598,-0.183105,-0.061035,0.000000,21.18,0
869621544,22238.459117,1777901070.057448,-472,-1899,-591,-3,-1,0,-0.230469,-0.927246,-0.288574,-0.183105,-0.061035,0.000000,21.29,0
869622557,22238.459125,1777901070.058460,-467,-1902,-591,-3,-2,0,-0.228027,-0.928711,-0.288574,-0.183105,-0.122070,0.000000,21.35,0
869623566,22238.467108,1777901070.059468,-465,-1902,-590,-3,-2,0,-0.227051,-0.928711,-0.288086,-0.183105,-0.122070,0.000000,21.39,0
869624578,22238.467124,1777901070.060479,-465,-1898,-589,-3,-2,0,-0.227051,-0.926758,-0.287598,-0.183105,-0.122070,0.000000,21.26,0
869625591,22238.467131,1777901070.061491,-467,-1896,-589,-3,-2,0,-0.228027,-0.925781,-0.287598,-0.183105,-0.122070,0.000000,21.26,0
869626605,22238.467138,1777901070.062505,-469,-1897,-591,-3,-2,0,-0.229004,-0.926270,-0.288574,-0.183105,-0.122070,0.000000,21.39,0
869627616,22238.467145,1777901070.063515,-468,-1898,-590,-4,-2,-1,-0.228516,-0.926758,-0.288086,-0.244141,-0.122070,-0.061035,21.41,0
869628627,22238.467152,1777901070.064525,-467,-1899,-590,-3,-2,0,-0.228027,-0.927246,-0.288086,-0.183105,-0.122070,0.000000,21.15,0
869629641,22238.467159,1777901070.065538,-467,-1898,-592,-3,-2,0,-0.228027,-0.926758,-0.289062,-0.183105,-0.122070,0.000000,21.30,0
869630654,22238.467166,1777901070.066551,-468,-1893,-592,-3,-2,0,-0.228516,-0.924316,-0.289062,-0.183105,-0.122070,0.000000,21.00,1
869631664,22238.475235,1777901070.067561,-472,-1893,-592,-2,-2,0,-0.230469,-0.924316,-0.289062,-0.122070,-0.122070,0.000000,21.11,0
869632678,22238.475259,1777901070.068574,-471,-1898,-593,-2,-1,0,-0.229980,-0.926758,-0.289551,-0.122070,-0.061035,0.000000,21.32,0
869633689,22238.475269,1777901070.069585,-468,-1898,-594,-3,0,0,-0.228516,-0.926758,-0.290039,-0.183105,0.000000,0.000000,21.18,0
869634702,22238.475278,1777901070.070597,-470,-1894,-590,-4,-1,0,-0.229492,-0.924805,-0.288086,-0.244141,-0.061035,0.000000,21.14,0
869635713,22238.475285,1777901070.071607,-469,-1894,-592,-4,-2,0,-0.229004,-0.924805,-0.289062,-0.244141,-0.122070,0.000000,21.35,0
869636725,22238.475297,1777901070.072618,-465,-1898,-592,-4,-2,0,-0.227051,-0.926758,-0.289062,-0.244141,-0.122070,0.000000,21.20,0
869637739,22238.475304,1777901070.073632,-466,-1900,-586,-3,-2,0,-0.227539,-0.927734,-0.286133,-0.183105,-0.122070,0.000000,21.27,0
869638750,22238.475311,1777901070.074642,-471,-1898,-589,-3,-1,-1,-0.229980,-0.926758,-0.287598,-0.183105,-0.061035,-0.061035,21.24,0
869639762,22238.483333,1777901070.075654,-472,-1897,-593,-3,0,-1,-0.230469,-0.926270,-0.289551,-0.183105,0.000000,-0.061035,21.23,0
869640776,22238.483347,1777901070.076667,-468,-1896,-591,-3,-1,0,-0.228516,-0.925781,-0.288574,-0.183105,-0.061035,0.000000,21.14,0
869641789,22238.483354,1777901070.077679,-466,-1897,-590,-2,-2,0,-0.227539,-0.926270,-0.288086,-0.122070,-0.122070,0.000000,21.14,1
869642799,22238.483361,1777901070.078688,-466,-1899,-594,-2,-1,0,-0.227539,-0.927246,-0.290039,-0.122070,-0.061035,0.000000,21.18,0
869643812,22238.483368,1777901070.079700,-466,-1898,-593,-2,-1,0,-0.227539,-0.926758,-0.289551,-0.122070,-0.061035,0.000000,21.20,0
869644824,22238.483375,1777901070.080712,-469,-1894,-589,-3,-1,-1,-0.229004,-0.924805,-0.287598,-0.183105,-0.061035,-0.061035,21.14,0
869645838,22238.483382,1777901070.081725,-470,-1895,-591,-3,-1,-1,-0.229492,-0.925293,-0.288574,-0.183105,-0.061035,-0.061035,21.14,0
869646850,22238.483388,1777901070.082736,-470,-1900,-595,-3,-1,-2,-0.229492,-0.927734,-0.290527,-0.183105,-0.061035,-0.122070,21.23,0
869647863,22238.491392,1777901070.083749,-470,-1898,-592,-3,-2,-1,-0.229492,-0.926758,-0.289062,-0.183105,-0.122070,-0.061035,21.17,0
869648874,22238.491435,1777901070.084759,-469,-1894,-590,-3,-2,0,-0.229004,-0.924805,-0.288086,-0.183105,-0.122070,0.000000,21.20,0
869649886,22238.491443,1777901070.085771,-468,-1896,-591,-4,-1,0,-0.228516,-0.925781,-0.288574,-0.244141,-0.061035,0.000000,21.11,0
869650897,22238.491452,1777901070.086781,-467,-1899,-591,-3,-1,0,-0.228027,-0.927246,-0.288574,-0.183105,-0.061035,0.000000,21.20,0
869651910,22238.491462,1777901070.087793,-465,-1897,-591,-3,-1,1,-0.227051,-0.926270,-0.288574,-0.183105,-0.061035,0.061035,21.21,0
869652921,22238.491469,1777901070.088804,-466,-1898,-590,-3,-1,0,-0.227539,-0.926758,-0.288086,-0.183105,-0.061035,0.000000,21.14,1
869653933,22238.491476,1777901070.089815,-467,-1899,-590,-3,-2,0,-0.228027,-0.927246,-0.288086,-0.183105,-0.122070,0.000000,21.29,0
869654946,22238.491483,1777901070.090827,-468,-1893,-590,-3,-2,0,-0.228516,-0.924316,-0.288086,-0.183105,-0.122070,0.000000,21.23,0
869655960,22238.499530,1777901070.091839,-469,-1894,-592,-3,-2,0,-0.229004,-0.924805,-0.289062,-0.183105,-0.122070,0.000000,21.33,0
869656972,22238.499544,1777901070.092851,-469,-1900,-595,-3,-2,-1,-0.229004,-0.927734,-0.290527,-0.183105,-0.122070,-0.061035,21.07,0
869657983,22238.499551,1777901070.093861,-469,-1900,-592,-3,-2,-1,-0.229004,-0.927734,-0.289062,-0.183105,-0.122070,-0.061035,21.20,0
869658995,22238.499558,1777901070.094872,-470,-1897,-587,-3,-2,0,-0.229492,-0.926270,-0.286621,-0.183105,-0.122070,0.000000,21.24,0
869660010,22238.499565,1777901070.095887,-470,-1898,-587,-3,-1,0,-0.229492,-0.926758,-0.286621,-0.183105,-0.061035,0.000000,21.35,0
869661022,22238.499572,1777901070.096898,-470,-1900,-589,-2,-1,0,-0.229492,-0.927734,-0.287598,-0.122070,-0.061035,0.000000,21.27,0
869662032,22238.499579,1777901070.097907,-469,-1898,-589,-2,-1,1,-0.229004,-0.926758,-0.287598,-0.122070,-0.061035,0.061035,21.20,0
869663046,22238.499585,1777901070.098921,-468,-1896,-588,-3,-2,1,-0.228516,-0.925781,-0.287109,-0.183105,-0.122070,0.061035,21.27,0
869664058,22238.507611,1777901070.099933,-468,-1897,-587,-4,-1,0,-0.228516,-0.926270,-0.286621,-0.244141,-0.061035,0.000000,21.20,1
869665069,22238.507628,1777901070.100943,-468,-1900,-586,-3,-1,-1,-0.228516,-0.927734,-0.286133,-0.183105,-0.061035,-0.061035,21.20,0
869666099,22238.507639,1777901070.101973,-468,-1900,-589,-2,-1,-1,-0.228516,-0.927734,-0.287598,-0.122070,-0.061035,-0.061035,21.11,0
869667099,22238.507647,1777901070.102972,-468,-1898,-595,-3,-1,0,-0.228516,-0.926758,-0.290527,-0.183105,-0.061035,0.000000,21.18,0
869668107,22238.507653,1777901070.103979,-468,-1899,-593,-3,-1,0,-0.228516,-0.927246,-0.289551,-0.183105,-0.061035,0.000000,21.18,0
869669119,22238.507660,1777901070.104991,-470,-1898,-589,-3,-1,0,-0.229492,-0.926758,-0.287598,-0.183105,-0.061035,0.000000,21.20,0
869670130,22238.507670,1777901070.106001,-467,-1897,-592,-3,-1,0,-0.228027,-0.926270,-0.289062,-0.183105,-0.061035,0.000000,21.32,0
869671143,22238.507677,1777901070.107013,-467,-1897,-594,-2,-1,-1,-0.228027,-0.926270,-0.290039,-0.122070,-0.061035,-0.061035,21.20,0
869672156,22238.515723,1777901070.108026,-471,-1894,-593,-2,-1,0,-0.229980,-0.924805,-0.289551,-0.122070,-0.061035,0.000000,21.14,0
869673168,22238.515748,1777901070.109037,-471,-1894,-592,-3,-2,0,-0.229980,-0.924805,-0.289062,-0.183105,-0.122070,0.000000,21.17,0
869674181,22238.515755,1777901070.110049,-466,-1898,-589,-3,-1,0,-0.227539,-0.926758,-0.287598,-0.183105,-0.061035,0.000000,21.26,0
869675192,22238.515762,1777901070.111061,-464,-1900,-589,-2,-1,0,-0.226562,-0.927734,-0.287598,-0.122070,-0.061035,0.000000,21.23,1
869676203,22238.515770,1777901070.112071,-467,-1897,-589,-2,-1,1,-0.228027,-0.926270,-0.287598,-0.122070,-0.061035,0.061035,21.18,0
869677216,22238.515777,1777901070.113083,-468,-1896,-589,-2,-1,0,-0.228516,-0.925781,-0.287598,-0.122070,-0.061035,0.000000,21.26,0
869678228,22238.515784,1777901070.114095,-467,-1897,-591,-3,-1,0,-0.228027,-0.926270,-0.288574,-0.183105,-0.061035,0.000000,21.07,0
869679241,22238.515791,1777901070.115107,-468,-1896,-589,-3,-1,0,-0.228516,-0.925781,-0.287598,-0.183105,-0.061035,0.000000,21.11,0
869680255,22238.525352,1777901070.116120,-468,-1898,-589,-3,-1,0,-0.228516,-0.926758,-0.287598,-0.183105,-0.061035,0.000000,21.11,0
869681266,22238.525373,1777901070.117131,-467,-1899,-592,-2,-1,0,-0.228027,-0.927246,-0.289062,-0.122070,-0.061035,0.000000,21.15,0
869682279,22238.525384,1777901070.118143,-468,-1897,-592,-3,-2,0,-0.228516,-0.926270,-0.289062,-0.183105,-0.122070,0.000000,21.23,0
869683289,22238.525395,1777901070.119152,-469,-1896,-591,-4,-2,0,-0.229004,-0.925781,-0.288574,-0.244141,-0.122070,0.000000,21.23,0
869684303,22238.525406,1777901070.120166,-470,-1896,-589,-3,-1,1,-0.229492,-0.925781,-0.287598,-0.183105,-0.061035,0.061035,21.26,0
869685315,22238.525417,1777901070.121177,-468,-1895,-591,-2,-1,0,-0.228516,-0.925293,-0.288574,-0.122070,-0.061035,0.000000,21.29,0
869686327,22238.525427,1777901070.122188,-469,-1897,-595,-4,-2,-1,-0.229004,-0.926270,-0.290527,-0.244141,-0.122070,-0.061035,21.12,1
869687339,22238.525439,1777901070.123200,-474,-1895,-593,-4,0,-1,-0.231445,-0.925293,-0.289551,-0.244141,0.000000,-0.061035,21.26,0
869688350,22238.531956,1777901070.124209,-474,-1892,-589,-4,0,0,-0.231445,-0.923828,-0.287598,-0.244141,0.000000,0.000000,21.36,0
869689364,22238.531999,1777901070.125222,-468,-1894,-592,-4,-1,0,-0.228516,-0.924805,-0.289062,-0.244141,-0.061035,0.000000,21.33,0
869690376,22238.532020,1777901070.126234,-466,-1896,-591,-3,-2,0,-0.227539,-0.925781,-0.288574,-0.183105,-0.122070,0.000000,21.26,0
869691387,22238.532030,1777901070.127244,-470,-1898,-589,-3,-2,0,-0.229492,-0.926758,-0.287598,-0.183105,-0.122070,0.000000,21.26,0
869692400,22238.532039,1777901070.128256,-470,-1900,-592,-2,-1,0,-0.229492,-0.927734,-0.289062,-0.122070,-0.061035,0.000000,21.09,0
869693413,22238.532048,1777901070.129269,-468,-1898,-592,-3,-1,0,-0.228516,-0.926758,-0.289062,-0.183105,-0.061035,0.000000,21.17,0
869694425,22238.532057,1777901070.130280,-468,-1898,-590,-3,-1,-1,-0.228516,-0.926758,-0.288086,-0.183105,-0.061035,-0.061035,21.18,0
869695436,22238.532068,1777901070.131290,-468,-1897,-590,-3,0,-1,-0.228516,-0.926270,-0.288086,-0.183105,0.000000,-0.061035,21.27,0
869696451,22238.540008,1777901070.132305,-466,-1894,-591,-3,0,-1,-0.227539,-0.924805,-0.288574,-0.183105,0.000000,-0.061035,21.23,0
869697460,22238.540026,1777901070.133313,-466,-1893,-590,-4,-1,0,-0.227539,-0.924316,-0.288086,-0.244141,-0.061035,0.000000,21.07,1
869698474,22238.540038,1777901070.134327,-467,-1895,-592,-3,0,0,-0.228027,-0.925293,-0.289062,-0.183105,0.000000,0.000000,21.20,0
869699487,22238.540049,1777901070.135339,-468,-1894,-594,-3,0,-1,-0.228516,-0.924805,-0.290039,-0.183105,0.000000,-0.061035,21.24,0
869700499,22238.540059,1777901070.136350,-471,-1894,-589,-3,-1,0,-0.229980,-0.924805,-0.287598,-0.183105,-0.061035,0.000000,21.20,0
869701510,22238.540069,1777901070.137361,-472,-1898,-589,-3,-1,0,-0.230469,-0.926758,-0.287598,-0.183105,-0.061035,0.000000,21.21,0
869702524,22238.540080,1777901070.138374,-469,-1899,-591,-2,0,-1,-0.229004,-0.927246,-0.288574,-0.122070,0.000000,-0.061035,21.21,0
869703537,22238.540090,1777901070.139386,-466,-1897,-590,-3,-1,-1,-0.227539,-0.926270,-0.288086,-0.183105,-0.061035,-0.061035,21.23,0
869704548,22238.548097,1777901070.140397,-466,-1896,-590,-3,-2,0,-0.227539,-0.925781,-0.288086,-0.183105,-0.122070,0.000000,21.17,0
869705561,22238.548130,1777901070.141409,-469,-1897,-590,-2,-2,1,-0.229004,-0.926270,-0.288086,-0.122070,-0.122070,0.061035,21.32,0
869706572,22238.548141,1777901070.142419,-470,-1898,-590,-2,-1,1,-0.229492,-0.926758,-0.288086,-0.122070,-0.061035,0.061035,21.23,0
869707584,22238.548151,1777901070.143431,-468,-1899,-592,-3,-1,0,-0.228516,-0.927246,-0.289062,-0.183105,-0.061035,0.000000,21.29,0
869708597,22238.548162,1777901070.144443,-466,-1898,-593,-4,-1,0,-0.227539,-0.926758,-0.289551,-0.244141,-0.061035,0.000000,21.29,1
869709609,22238.548175,1777901070.145454,-467,-1897,-592,-4,-1,1,-0.228027,-0.926270,-0.289062,-0.244141,-0.061035,0.061035,21.30,0
869710621,22238.548182,1777901070.146466,-469,-1900,-593,-3,-1,1,-0.229004,-0.927734,-0.289551,-0.183105,-0.061035,0.061035,21.39,0
869711633,22238.548250,1777901070.147477,-470,-1902,-595,-3,-1,0,-0.229492,-0.928711,-0.290527,-0.183105,-0.061035,0.000000,21.30,0
869712646,22238.556211,1777901070.148489,-469,-1897,-592,-3,-2,-1,-0.229004,-0.926270,-0.289062,-0.183105,-0.122070,-0.061035,21.24,0
869713657,22238.556229,1777901070.149499,-468,-1893,-590,-3,-1,-1,-0.228516,-0.924316,-0.288086,-0.183105,-0.061035,-0.061035,21.20,0
869714670,22238.556237,1777901070.150512,-468,-1897,-589,-3,-1,-1,-0.228516,-0.926270,-0.287598,-0.183105,-0.061035,-0.061035,21.32,0
869715682,22238.556244,1777901070.151523,-469,-1897,-591,-3,0,0,-0.229004,-0.926270,-0.288574,-0.183105,0.000000,0.000000,21.24,0
869716694,22238.556251,1777901070.152534,-469,-1894,-591,-3,-1,1,-0.229004,-0.924805,-0.288574,-0.183105,-0.061035,0.061035,21.38,0
869717707,22238.556258,1777901070.153547,-467,-1896,-588,-3,-1,0,-0.228027,-0.925781,-0.287109,-0.183105,-0.061035,0.000000,21.32,0
869718720,22238.556265,1777901070.154559,-467,-1898,-590,-3,-1,-1,-0.228027,-0.926758,-0.288086,-0.183105,-0.061035,-0.061035,21.21,0
869719730,22238.556271,1777901070.155568,-469,-1896,-591,-2,-2,-1,-0.229004,-0.925781,-0.288574,-0.122070,-0.122070,-0.061035,21.11,1
869720745,22238.564341,1777901070.156583,-469,-1894,-590,-2,-1,-1,-0.229004,-0.924805,-0.288086,-0.122070,-0.061035,-0.061035,21.23,0
869721757,22238.564370,1777901070.157595,-466,-1897,-596,-4,-1,0,-0.227539,-0.926270,-0.291016,-0.244141,-0.061035,0.000000,21.23,0
869722769,22238.564381,1777901070.158606,-467,-1901,-597,-3,-1,0,-0.228027,-0.928223,-0.291504,-0.183105,-0.061035,0.000000,21.24,0
869723780,22238.564392,1777901070.159616,-466,-1902,-590,-3,-1,1,-0.227539,-0.928711,-0.288086,-0.183105,-0.061035,0.061035,21.15,0
869724793,22238.564402,1777901070.160629,-466,-1899,-588,-3,-1,0,-0.227539,-0.927246,-0.287109,-0.183105,-0.061035,0.000000,21.14,0
869725804,22238.564411,1777901070.161639,-468,-1898,-591,-3,-1,-1,-0.228516,-0.926758,-0.288574,-0.183105,-0.061035,-0.061035,21.20,0
869726816,22238.564418,1777901070.162650,-466,-1898,-589,-3,0,-1,-0.227539,-0.926758,-0.287598,-0.183105,0.000000,-0.061035,21.17,0
869727828,22238.564425,1777901070.163662,-465,-1897,-588,-3,0,0,-0.227051,-0.926270,-0.287109,-0.183105,0.000000,0.000000,21.29,0
869728843,22238.572418,1777901070.164676,-467,-1899,-590,-3,-1,0,-0.228027,-0.927246,-0.288086,-0.183105,-0.061035,0.000000,21.21,0
869729854,22238.572434,1777901070.165686,-467,-1899,-591,-3,-1,0,-0.228027,-0.927246,-0.288574,-0.183105,-0.061035,0.000000,21.44,0
869730866,22238.572441,1777901070.166697,-467,-1897,-592,-3,-1,0,-0.228027,-0.926270,-0.289062,-0.183105,-0.061035,0.000000,21.26,1
869731879,22238.572450,1777901070.167709,-469,-1897,-592,-3,0,-1,-0.229004,-0.926270,-0.289062,-0.183105,0.000000,-0.061035,21.14,0
869732891,22238.572457,1777901070.168720,-469,-1898,-589,-3,-1,-1,-0.229004,-0.926758,-0.287598,-0.183105,-0.061035,-0.061035,21.12,0
869733903,22238.572464,1777901070.169731,-470,-1897,-590,-3,-1,0,-0.229492,-0.926270,-0.288086,-0.183105,-0.061035,0.000000,21.32,0
869734916,22238.572471,1777901070.170744,-469,-1895,-595,-3,-1,0,-0.229004,-0.925293,-0.290527,-0.183105,-0.061035,0.000000,21.38,0
869735929,22238.572478,1777901070.171756,-468,-1895,-596,-4,-1,-1,-0.228516,-0.925293,-0.291016,-0.244141,-0.061035,-0.061035,21.15,0
869736939,22238.580512,1777901070.172765,-467,-1898,-592,-4,-2,0,-0.228027,-0.926758,-0.289062,-0.244141,-0.122070,0.000000,21.32,0
869737951,22238.580528,1777901070.173777,-466,-1900,-592,-3,-2,0,-0.227539,-0.927734,-0.289062,-0.183105,-0.122070,0.000000,21.18,0
869738964,22238.580540,1777901070.174789,-465,-1900,-595,-2,-1,-1,-0.227051,-0.927734,-0.290527,-0.122070,-0.061035,-0.061035,21.23,0
869739978,22238.580550,1777901070.175802,-466,-1898,-594,-3,-1,0,-0.227539,-0.926758,-0.290039,-0.183105,-0.061035,0.000000,21.24,0
869740990,22238.580561,1777901070.176814,-467,-1896,-589,-2,-2,0,-0.228027,-0.925781,-0.287598,-0.122070,-0.122070,0.000000,21.33,0
869742001,22238.580571,1777901070.177824,-469,-1894,-587,-2,-2,0,-0.229004,-0.924805,-0.286621,-0.122070,-0.122070,0.000000,21.23,1
869743014,22238.580583,1777901070.178837,-469,-1896,-591,-3,-2,-1,-0.229004,-0.925781,-0.288574,-0.183105,-0.122070,-0.061035,21.32,0
869744025,22238.580594,1777901070.179847,-467,-1902,-593,-4,-1,-1,-0.228027,-0.928711,-0.289551,-0.244141,-0.061035,-0.061035,21.23,0
869745039,22238.588624,1777901070.180860,-470,-1902,-590,-5,-2,0,-0.229492,-0.928711,-0.288086,-0.305176,-0.122070,0.000000,21.18,0
869746049,22238.588641,1777901070.181869,-474,-1896,-586,-3,-2,0,-0.231445,-0.925781,-0.286133,-0.183105,-0.122070,0.000000,21.21,0
869747061,22238.588649,1777901070.182880,-471,-1894,-586,-3,0,0,-0.229980,-0.924805,-0.286133,-0.183105,0.000000,0.000000,21.20,0
869748073,22238.588656,1777901070.183892,-468,-1892,-587,-4,0,-1,-0.228516,-0.923828,-0.286621,-0.244141,0.000000,-0.061035,21.20,0
869749094,22238.588663,1777901070.184912,-466,-1893,-589,-4,-1,-2,-0.227539,-0.924316,-0.287598,-0.244141,-0.061035,-0.122070,21.21,0
869750099,22238.588670,1777901070.185916,-465,-1898,-592,-3,-2,-2,-0.227051,-0.926758,-0.289062,-0.183105,-0.122070,-0.122070,21.14,0
869751113,22238.588677,1777901070.186930,-468,-1902,-595,-3,-3,-1,-0.228516,-0.928711,-0.290527,-0.183105,-0.183105,-0.061035,21.17,0
869752124,22238.588684,1777901070.187940,-470,-1903,-593,-4,-2,0,-0.229492,-0.929199,-0.289551,-0.244141,-0.122070,0.000000,21.23,0
869753136,22238.596710,1777901070.188953,-470,-1901,-588,-5,-1,-1,-0.229492,-0.928223,-0.287109,-0.305176,-0.061035,-0.061035,21.14,1
869754149,22238.596727,1777901070.189965,-469,-1900,-587,-4,0,0,-0.229004,-0.927734,-0.286621,-0.244141,0.000000,0.000000,21.09,0
869755159,22238.596734,1777901070.190974,-466,-1900,-589,-3,-1,1,-0.227539,-0.927734,-0.287598,-0.183105,-0.061035,0.061035,21.17,0
869756174,22238.596741,1777901070.191989,-466,-1900,-590,-3,-2,1,-0.227539,-0.927734,-0.288086,-0.183105,-0.122070,0.061035,21.41,0
869757184,22238.596748,1777901070.192998,-468,-1899,-590,-3,-1,0,-0.228516,-0.927246,-0.288086,-0.183105,-0.061035,0.000000,21.35,0
869758198,22238.596755,1777901070.194011,-468,-1899,-594,-3,-1,-1,-0.228516,-0.927246,-0.290039,-0.183105,-0.061035,-0.061035,21.17,0
869759211,22238.596762,1777901070.195024,-467,-1897,-596,-3,-1,0,-0.228027,-0.926270,-0.291016,-0.183105,-0.061035,0.000000,21.30,0
869760221,22238.596769,1777901070.196033,-467,-1896,-590,-3,-2,1,-0.228027,-0.925781,-0.288086,-0.183105,-0.122070,0.061035,21.20,0
869761235,22238.604785,1777901070.197047,-467,-1897,-589,-4,-2,0,-0.228027,-0.926270,-0.287598,-0.244141,-0.122070,0.000000,21.01,0
869762246,22238.604802,1777901070.198057,-468,-1893,-593,-4,-2,-2,-0.228516,-0.924316,-0.289551,-0.244141,-0.122070,-0.122070,21.07,0
869763260,22238.604810,1777901070.199070,-469,-1890,-591,-4,-2,-2,-0.229004,-0.922852,-0.288574,-0.244141,-0.122070,-0.122070,21.23,0
869764270,22238.604817,1777901070.200078,-469,-1893,-591,-4,-1,-1,-0.229004,-0.924316,-0.288574,-0.244141,-0.061035,-0.061035,21.24,1
869765283,22238.604825,1777901070.201090,-470,-1894,-594,-4,0,-1,-0.229492,-0.924805,-0.290039,-0.244141,0.000000,-0.061035,21.20,0
869766294,22238.604832,1777901070.202101,-469,-1896,-592,-4,0,-1,-0.229004,-0.925781,-0.289062,-0.244141,0.000000,-0.061035,21.26,0
869767308,22238.604841,1777901070.203114,-467,-1898,-591,-3,-1,-1,-0.228027,-0.926758,-0.288574,-0.183105,-0.061035,-0.061035,21.20,0
869768318,22238.604851,1777901070.204123,-468,-1899,-593,-3,-1,-1,-0.228516,-0.927246,-0.289551,-0.183105,-0.061035,-0.061035,21.20,0
869769331,22238.612905,1777901070.205135,-469,-1898,-592,-3,0,-1,-0.229004,-0.926758,-0.289062,-0.183105,0.000000,-0.061035,21.14,0
869770345,22238.612925,1777901070.206149,-467,-1897,-591,-3,0,-1,-0.228027,-0.926270,-0.288574,-0.183105,0.000000,-0.061035,21.21,0
869771357,22238.612936,1777901070.207160,-466,-1897,-588,-3,-2,-1,-0.227539,-0.926270,-0.287109,-0.183105,-0.122070,-0.061035,21.29,0
869772368,22238.612947,1777901070.208170,-467,-1897,-589,-3,-2,0,-0.228027,-0.926270,-0.287598,-0.183105,-0.122070,0.000000,21.24,0
869773382,22238.612958,1777901070.209184,-467,-1899,-594,-3,-1,0,-0.228027,-0.927246,-0.290039,-0.183105,-0.061035,0.000000,21.14,0
869774393,22238.613015,1777901070.210194,-467,-1900,-592,-3,-1,0,-0.228027,-0.927734,-0.289062,-0.183105,-0.061035,0.000000,21.29,0
869775406,22238.613026,1777901070.211206,-469,-1898,-586,-3,-2,-1,-0.229004,-0.926758,-0.286133,-0.183105,-0.122070,-0.061035,21.21,1
869776419,22238.613038,1777901070.212219,-468,-1899,-589,-3,-2,-1,-0.228516,-0.927246,-0.287598,-0.183105,-0.122070,-0.061035,21.26,0
869777431,22238.621011,1777901070.213231,-465,-1901,-592,-3,-2,-1,-0.227051,-0.928223,-0.289062,-0.183105,-0.122070,-0.061035,21.20,0
869778442,22238.621061,1777901070.214241,-465,-1898,-588,-3,-1,-1,-0.227051,-0.926758,-0.287109,-0.183105,-0.061035,-0.061035,21.24,0
869779454,22238.621073,1777901070.215252,-467,-1896,-586,-3,0,0,-0.228027,-0.925781,-0.286133,-0.183105,0.000000,0.000000,21.27,0
869780468,22238.621083,1777901070.216266,-467,-1895,-590,-3,0,-1,-0.228027,-0.925293,-0.288086,-0.183105,0.000000,-0.061035,21.11,0
869781479,22238.621091,1777901070.217276,-468,-1896,-592,-3,0,-1,-0.228516,-0.925781,-0.289062,-0.183105,0.000000,-0.061035,21.30,0
869782491,22238.621098,1777901070.218287,-467,-1896,-591,-3,0,0,-0.228027,-0.925781,-0.288574,-0.183105,0.000000,0.000000,21.26,0
869783505,22238.621105,1777901070.219301,-464,-1896,-591,-3,-1,1,-0.226562,-0.925781,-0.288574,-0.183105,-0.061035,0.061035,21.24,0
869784515,22238.621112,1777901070.220310,-466,-1896,-592,-3,-1,0,-0.227539,-0.925781,-0.289062,-0.183105,-0.061035,0.000000,21.29,0
869785529,22238.629076,1777901070.221323,-471,-1893,-592,-3,-1,-1,-0.229980,-0.924316,-0.289062,-0.183105,-0.061035,-0.061035,21.17,0
869786539,22238.629098,1777901070.222332,-470,-1893,-590,-3,-1,0,-0.229492,-0.924316,-0.288086,-0.183105,-0.061035,0.000000,21.29,1
869787554,22238.629111,1777901070.223346,-466,-1896,-589,-4,-1,0,-0.227539,-0.925781,-0.287598,-0.244141,-0.061035,0.000000,21.23,0
869788566,22238.629122,1777901070.224358,-465,-1898,-591,-4,-1,0,-0.227051,-0.926758,-0.288574,-0.244141,-0.061035,0.000000,21.27,0
869789578,22238.629134,1777901070.225369,-469,-1898,-590,-3,-1,-1,-0.229004,-0.926758,-0.288086,-0.183105,-0.061035,-0.061035,21.11,0
869790589,22238.629145,1777901070.226379,-470,-1898,-589,-3,-1,-1,-0.229492,-0.926758,-0.287598,-0.183105,-0.061035,-0.061035,21.26,0
869791602,22238.629157,1777901070.227392,-467,-1899,-589,-3,-1,0,-0.228027,-0.927246,-0.287598,-0.183105,-0.061035,0.000000,21.29,0
869792615,22238.629168,1777901070.228404,-466,-1897,-591,-3,-1,0,-0.227539,-0.926270,-0.288574,-0.183105,-0.061035,0.000000,21.29,0
869793625,22238.637191,1777901070.229413,-469,-1894,-592,-3,-1,0,-0.229004,-0.924805,-0.289062,-0.183105,-0.061035,0.000000,21.42,0
869794639,22238.637218,1777901070.230427,-471,-1898,-588,-2,0,-1,-0.229980,-0.926758,-0.287109,-0.122070,0.000000,-0.061035,21.29,0
869795651,22238.637226,1777901070.231438,-470,-1901,-587,-3,-1,-1,-0.229492,-0.928223,-0.286621,-0.183105,-0.061035,-0.061035,21.29,0
869796663,22238.637233,1777901070.232449,-469,-1900,-589,-3,-2,-1,-0.229004,-0.927734,-0.287598,-0.183105,-0.122070,-0.061035,21.30,0
869797676,22238.637240,1777901070.233462,-467,-1898,-589,-3,-1,0,-0.228027,-0.926758,-0.287598,-0.183105,-0.061035,0.000000,21.33,1
869798686,22238.637253,1777901070.234471,-465,-1896,-590,-3,-1,0,-0.227051,-0.925781,-0.288086,-0.183105,-0.061035,0.000000,21.33,0
869799700,22238.637263,1777901070.235484,-464,-1896,-594,-3,-1,0,-0.226562,-0.925781,-0.290039,-0.183105,-0.061035,0.000000,21.17,0
869800712,22238.637270,1777901070.236496,-468,-1901,-591,-3,-2,1,-0.228516,-0.928223,-0.288574,-0.183105,-0.122070,0.061035,21.32,0
869801725,22238.645326,1777901070.237509,-470,-1902,-590,-3,-2,1,-0.229492,-0.928711,-0.288086,-0.183105,-0.122070,0.061035,21.32,0
869802737,22238.645336,1777901070.238520,-469,-1899,-594,-3,-2,0,-0.229004,-0.927246,-0.290039,-0.183105,-0.122070,0.000000,21.23,0
869803750,22238.645343,1777901070.239533,-465,-1899,-594,-3,-2,0,-0.227051,-0.927246,-0.290039,-0.183105,-0.122070,0.000000,21.01,0
869804760,22238.645350,1777901070.240542,-466,-1900,-593,-3,0,0,-0.227539,-0.927734,-0.289551,-0.183105,0.000000,0.000000,21.14,0
869805774,22238.645357,1777901070.241555,-469,-1895,-593,-3,0,0,-0.229004,-0.925293,-0.289551,-0.183105,0.000000,0.000000,21.33,0
869806785,22238.645364,1777901070.242566,-465,-1893,-592,-3,-1,0,-0.227051,-0.924316,-0.289062,-0.183105,-0.061035,0.000000,21.32,0
869807797,22238.645370,1777901070.243577,-465,-1896,-588,-3,-2,0,-0.227051,-0.925781,-0.287109,-0.183105,-0.122070,0.000000,21.20,0
869808809,22238.645377,1777901070.244589,-469,-1896,-587,-3,-1,1,-0.229004,-0.925781,-0.286621,-0.183105,-0.061035,0.061035,21.29,1
869809823,22238.653381,1777901070.245601,-467,-1895,-591,-3,-1,0,-0.228027,-0.925293,-0.288574,-0.183105,-0.061035,0.000000,21.18,0
869810834,22238.653398,1777901070.246612,-468,-1897,-590,-4,-1,-1,-0.228516,-0.926270,-0.288086,-0.244141,-0.061035,-0.061035,21.14,0
869811848,22238.653407,1777901070.247625,-470,-1898,-585,-3,-1,0,-0.229492,-0.926758,-0.285645,-0.183105,-0.061035,0.000000,21.20,0
869812860,22238.653414,1777901070.248636,-468,-1896,-586,-3,0,0,-0.228516,-0.925781,-0.286133,-0.183105,0.000000,0.000000,21.20,0
869813872,22238.653421,1777901070.249648,-467,-1895,-593,-3,-1,-1,-0.228027,-0.925293,-0.289551,-0.183105,-0.061035,-0.061035,21.12,0
869814884,22238.653428,1777901070.250659,-466,-1899,-595,-4,-2,-2,-0.227539,-0.927246,-0.290527,-0.244141,-0.122070,-0.122070,21.17,0
869815896,22238.653435,1777901070.251670,-468,-1903,-590,-4,0,-1,-0.228516,-0.929199,-0.288086,-0.244141,0.000000,-0.061035,21.11,0
869816908,22238.653442,1777901070.252681,-469,-1902,-589,-3,1,0,-0.229004,-0.928711,-0.287598,-0.183105,0.061035,0.000000,21.11,0
869817921,22238.661495,1777901070.253694,-468,-1900,-588,-3,0,0,-0.228516,-0.927734,-0.287109,-0.183105,0.000000,0.000000,21.15,0
869818932,22238.661514,1777901070.254704,-467,-1900,-584,-3,-2,0,-0.228027,-0.927734,-0.285156,-0.183105,-0.122070,0.000000,21.21,0
869819944,22238.661525,1777901070.255715,-464,-1900,-585,-4,-2,-1,-0.226562,-0.927734,-0.285645,-0.244141,-0.122070,-0.061035,21.32,1
869820958,22238.661537,1777901070.256728,-463,-1901,-586,-4,-2,-1,-0.226074,-0.928223,-0.286133,-0.244141,-0.122070,-0.061035,21.26,0
869821968,22238.661547,1777901070.257738,-468,-1903,-587,-4,-2,0,-0.228516,-0.929199,-0.286621,-0.244141,-0.122070,0.000000,21.11,0
869822982,22238.661558,1777901070.258751,-469,-1901,-590,-2,-2,0,-0.229004,-0.928223,-0.288086,-0.122070,-0.122070,0.000000,21.21,0
869823994,22238.661568,1777901070.259762,-466,-1896,-587,-3,-2,0,-0.227539,-0.925781,-0.286621,-0.183105,-0.122070,0.000000,21.18,0
869825006,22238.661578,1777901070.260773,-466,-1894,-587,-4,-2,0,-0.227539,-0.924805,-0.286621,-0.244141,-0.122070,0.000000,21.20,0
869826017,22238.669581,1777901070.261784,-472,-1896,-590,-4,-2,-1,-0.230469,-0.925781,-0.288086,-0.244141,-0.122070,-0.061035,21.12,0
869827029,22238.669600,1777901070.262795,-474,-1897,-590,-3,-1,-1,-0.231445,-0.926270,-0.288086,-0.183105,-0.061035,-0.061035,21.17,0
869828042,22238.669611,1777901070.263808,-471,-1894,-589,-3,-1,-1,-0.229980,-0.924805,-0.287598,-0.183105,-0.061035,-0.061035,21.20,0
869829055,22238.669622,1777901070.264820,-470,-1895,-586,-3,-2,-1,-0.229492,-0.925293,-0.286133,-0.183105,-0.122070,-0.061035,21.14,0
869830066,22238.669633,1777901070.265830,-467,-1897,-589,-4,-2,0,-0.228027,-0.926270,-0.287598,-0.244141,-0.122070,0.000000,21.26,0
869831080,22238.669644,1777901070.266844,-467,-1895,-593,-3,0,0,-0.228027,-0.925293,-0.289551,-0.183105,0.000000,0.000000,21.27,1
869832098,22238.669656,1777901070.267861,-469,-1894,-589,-2,0,-1,-0.229004,-0.924805,-0.287598,-0.122070,0.000000,-0.061035,21.24,0
869833103,22238.669667,1777901070.268865,-468,-1895,-586,-2,-1,-2,-0.228516,-0.925293,-0.286133,-0.122070,-0.061035,-0.122070,21.12,0
869834116,22238.677694,1777901070.269878,-467,-1895,-590,-3,-2,-1,-0.228027,-0.925293,-0.288086,-0.183105,-0.122070,-0.061035,21.23,0
869835130,22238.677711,1777901070.270892,-469,-1896,-592,-4,-1,0,-0.229004,-0.925781,-0.289062,-0.244141,-0.061035,0.000000,21.20,0
869836142,22238.677719,1777901070.271903,-468,-1897,-588,-4,-1,1,-0.228516,-0.926270,-0.287109,-0.244141,-0.061035,0.061035,21.32,0
869837152,22238.677771,1777901070.272912,-466,-1898,-587,-4,-1,0,-0.227539,-0.926758,-0.286621,-0.244141,-0.061035,0.000000,21.26,0
869838166,22238.677778,1777901070.273926,-471,-1898,-590,-2,-1,-1,-0.229980,-0.926758,-0.288086,-0.122070,-0.061035,-0.061035,21.23,0
869839178,22238.677785,1777901070.274937,-470,-1898,-591,-2,0,-1,-0.229492,-0.926758,-0.288574,-0.122070,0.000000,-0.061035,21.11,0
869840190,22238.677792,1777901070.275948,-467,-1898,-591,-4,0,0,-0.228027,-0.926758,-0.288574,-0.244141,0.000000,0.000000,21.18,0
869841201,22238.677799,1777901070.276959,-468,-1897,-591,-4,-2,-1,-0.228516,-0.926270,-0.288574,-0.244141,-0.122070,-0.061035,21.21,0
869842214,22238.685805,1777901070.277972,-468,-1897,-591,-4,-1,-1,-0.228516,-0.926270,-0.288574,-0.244141,-0.061035,-0.061035,21.26,1
869843226,22238.685825,1777901070.278983,-469,-1897,-594,-5,-1,-1,-0.229004,-0.926270,-0.290039,-0.305176,-0.061035,-0.061035,21.14,0
869844238,22238.685834,1777901070.279994,-470,-1900,-594,-5,-1,-1,-0.229492,-0.927734,-0.290039,-0.305176,-0.061035,-0.061035,21.18,0
869845252,22238.685841,1777901070.281008,-469,-1900,-590,-3,-1,0,-0.229004,-0.927734,-0.288086,-0.183105,-0.061035,0.000000,21.18,0
869846263,22238.685848,1777901070.282018,-468,-1899,-591,-2,-1,0,-0.228516,-0.927246,-0.288574,-0.122070,-0.061035,0.000000,21.04,0
869847277,22238.685856,1777901070.283031,-467,-1900,-591,-2,-1,0,-0.228027,-0.927734,-0.288574,-0.122070,-0.061035,0.000000,21.15,0
869848289,22238.685863,1777901070.284043,-466,-1897,-588,-3,-1,0,-0.227539,-0.926270,-0.287109,-0.183105,-0.061035,0.000000,21.11,0
869849300,22238.685869,1777901070.285053,-466,-1892,-589,-3,-2,0,-0.227539,-0.923828,-0.287598,-0.183105,-0.122070,0.000000,21.12,0
869850313,22238.693891,1777901070.286065,-467,-1894,-592,-2,-2,-1,-0.228027,-0.924805,-0.289062,-0.122070,-0.122070,-0.061035,21.07,0
869851324,22238.693917,1777901070.287076,-469,-1896,-592,-1,-1,-1,-0.229004,-0.925781,-0.289062,-0.061035,-0.061035,-0.061035,21.41,0
869852336,22238.693927,1777901070.288087,-469,-1896,-590,-3,-1,0,-0.229004,-0.925781,-0.288086,-0.183105,-0.061035,0.000000,21.24,0
869853350,22238.693937,1777901070.289099,-468,-1897,-587,-5,-1,0,-0.228516,-0.926270,-0.286621,-0.305176,-0.061035,0.000000,21.14,1
869854362,22238.693946,1777901070.290111,-469,-1895,-589,-4,-1,-1,-0.229004,-0.925293,-0.287598,-0.244141,-0.061035,-0.061035,21.15,0
869855374,22238.693955,1777901070.291122,-469,-1893,-594,-4,-1,-1,-0.229004,-0.924316,-0.290039,-0.244141,-0.061035,-0.061035,21.41,0
869856386,22238.693964,1777901070.292134,-469,-1891,-596,-3,-1,0,-0.229004,-0.923340,-0.291016,-0.183105,-0.061035,0.000000,21.36,0
869857399,22238.693972,1777901070.293146,-468,-1892,-592,-2,-1,0,-0.228516,-0.923828,-0.289062,-0.122070,-0.061035,0.000000,21.29,0
869858411,22238.701964,1777901070.294157,-469,-1897,-590,-2,-1,0,-0.229004,-0.926270,-0.288086,-0.122070,-0.061035,0.000000,21.06,0
869859422,22238.701986,1777901070.295167,-470,-1898,-591,-3,-2,0,-0.229492,-0.926758,-0.288574,-0.183105,-0.122070,0.000000,21.11,0
869860434,22238.701997,1777901070.296179,-467,-1897,-591,-3,-1,0,-0.228027,-0.926270,-0.288574,-0.183105,-0.061035,0.000000,21.39,0
869861448,22238.702014,1777901070.297192,-466,-1897,-589,-3,-1,-1,-0.227539,-0.926270,-0.287598,-0.183105,-0.061035,-0.061035,21.30,0
869862459,22238.702025,1777901070.298203,-469,-1898,-588,-3,-2,0,-0.229004,-0.926758,-0.287109,-0.183105,-0.122070,0.000000,21.29,0
869863473,22238.702036,1777901070.299216,-469,-1897,-589,-3,-2,1,-0.229004,-0.926270,-0.287598,-0.183105,-0.122070,0.061035,21.29,0
869864484,22238.702047,1777901070.300226,-468,-1898,-591,-3,-2,0,-0.228516,-0.926758,-0.288574,-0.183105,-0.122070,0.000000,21.35,1
869865496,22238.702059,1777901070.301238,-470,-1899,-592,-4,-2,0,-0.229492,-0.927246,-0.289062,-0.244141,-0.122070,0.000000,21.11,0
869866509,22238.710057,1777901070.302250,-470,-1900,-592,-4,-2,0,-0.229492,-0.927734,-0.289062,-0.244141,-0.122070,0.000000,21.30,0
869867522,22238.710076,1777901070.303262,-469,-1899,-593,-2,-1,0,-0.229004,-0.927246,-0.289551,-0.122070,-0.061035,0.000000,21.17,0
869868534,22238.710088,1777901070.304274,-469,-1896,-592,-2,-1,0,-0.229004,-0.925781,-0.289062,-0.122070,-0.061035,0.000000,21.26,0
869869544,22238.710099,1777901070.305283,-469,-1896,-589,-4,-1,0,-0.229004,-0.925781,-0.287598,-0.244141,-0.061035,0.000000,21.26,0
869870557,22238.710110,1777901070.306295,-469,-1901,-590,-4,-1,0,-0.229004,-0.928223,-0.288086,-0.244141,-0.061035,0.000000,21.17,0
869871571,22238.710120,1777901070.307309,-468,-1902,-591,-3,-2,0,-0.228516,-0.928711,-0.288574,-0.183105,-0.122070,0.000000,21.15,0
869872582,22238.710131,1777901070.308319,-466,-1900,-590,-3,-2,-1,-0.227539,-0.927734,-0.288086,-0.183105,-0.122070,-0.061035,21.23,0
869873593,22238.710142,1777901070.309330,-466,-1898,-592,-3,-1,-1,-0.227539,-0.926758,-0.289062,-0.183105,-0.061035,-0.061035,21.12,0
869874607,22238.718153,1777901070.310343,-466,-1897,-594,-2,-1,0,-0.227539,-0.926270,-0.290039,-0.122070,-0.061035,0.000000,21.23,0
869875619,22238.718175,1777901070.311354,-468,-1896,-594,-2,-2,0,-0.228516,-0.925781,-0.290039,-0.122070,-0.122070,0.000000,21.26,1
869876630,22238.718188,1777901070.312364,-472,-1895,-590,-3,-2,0,-0.230469,-0.925293,-0.288086,-0.183105,-0.122070,0.000000,21.35,0
869877644,22238.718199,1777901070.313378,-470,-1895,-592,-3,-2,0,-0.229492,-0.925293,-0.289062,-0.183105,-0.122070,0.000000,21.29,0
869878657,22238.718210,1777901070.314390,-465,-1895,-592,-3,-2,0,-0.227051,-0.925293,-0.289062,-0.183105,-0.122070,0.000000,21.32,0
869879669,22238.718220,1777901070.315401,-463,-1896,-587,-3,-1,0,-0.226074,-0.925781,-0.286621,-0.183105,-0.061035,0.000000,21.14,0
869880681,22238.718230,1777901070.316412,-464,-1897,-589,-3,-1,0,-0.226562,-0.926270,-0.287598,-0.183105,-0.061035,0.000000,21.01,0
869881691,22238.718241,1777901070.317422,-466,-1895,-593,-3,-1,0,-0.227539,-0.925293,-0.289551,-0.183105,-0.061035,0.000000,21.20,0
869882706,22238.726255,1777901070.318436,-469,-1894,-592,-3,-1,0,-0.229004,-0.924805,-0.289062,-0.183105,-0.061035,0.000000,21.29,0
869883717,22238.726295,1777901070.319447,-468,-1900,-591,-4,-2,-1,-0.228516,-0.927734,-0.288574,-0.244141,-0.122070,-0.061035,21.29,0
869884731,22238.726306,1777901070.320460,-467,-1900,-590,-5,-2,-1,-0.228027,-0.927734,-0.288086,-0.305176,-0.122070,-0.061035,21.20,0
869885740,22238.726318,1777901070.321468,-468,-1895,-591,-5,-2,0,-0.228516,-0.925293,-0.288574,-0.305176,-0.122070,0.000000,21.14,0
869886752,22238.726329,1777901070.322480,-467,-1897,-592,-3,-1,0,-0.228027,-0.926270,-0.289062,-0.183105,-0.061035,0.000000,21.24,1
869887767,22238.726341,1777901070.323494,-466,-1900,-592,-3,-1,0,-0.227539,-0.927734,-0.289062,-0.183105,-0.061035,0.000000,21.38,0
869888778,22238.726353,1777901070.324504,-467,-1898,-591,-3,-1,0,-0.228027,-0.926758,-0.288574,-0.183105,-0.061035,0.000000,21.24,0
869889792,22238.726364,1777901070.325518,-470,-1896,-592,-3,-1,-1,-0.229492,-0.925781,-0.289062,-0.183105,-0.061035,-0.061035,21.11,0
869890802,22238.734371,1777901070.326527,-470,-1896,-591,-4,-2,-1,-0.229492,-0.925781,-0.288574,-0.244141,-0.122070,-0.061035,21.20,0
869891815,22238.734391,1777901070.327539,-467,-1897,-590,-3,-2,0,-0.228027,-0.926270,-0.288086,-0.183105,-0.122070,0.000000,21.29,0
869892827,22238.734399,1777901070.328551,-467,-1899,-591,-2,-2,0,-0.228027,-0.927246,-0.288574,-0.122070,-0.122070,0.000000,21.20,0
869893841,22238.734406,1777901070.329564,-469,-1899,-592,-2,-2,-1,-0.229004,-0.927246,-0.289062,-0.122070,-0.122070,-0.061035,21.20,0
869894852,22238.734413,1777901070.330574,-468,-1898,-590,-2,-1,0,-0.228516,-0.926758,-0.288086,-0.122070,-0.061035,0.000000,21.14,0
869895864,22238.734420,1777901070.331586,-467,-1899,-590,-3,-1,1,-0.228027,-0.927246,-0.288086,-0.183105,-0.061035,0.061035,21.09,0
869896875,22238.734427,1777901070.332596,-470,-1896,-590,-4,-2,0,-0.229492,-0.925781,-0.288086,-0.244141,-0.122070,0.000000,21.20,0
869897888,22238.734434,1777901070.333608,-472,-1893,-589,-3,-3,-1,-0.230469,-0.924316,-0.287598,-0.183105,-0.183105,-0.061035,21.35,1
869898901,22238.742494,1777901070.334621,-470,-1897,-589,-3,-2,-1,-0.229492,-0.926270,-0.287598,-0.183105,-0.122070,-0.061035,21.39,0
869899912,22238.742560,1777901070.335631,-468,-1901,-588,-3,-1,0,-0.228516,-0.928223,-0.287109,-0.183105,-0.061035,0.000000,21.30,0
869900924,22238.742571,1777901070.336643,-466,-1900,-589,-3,-1,1,-0.227539,-0.927734,-0.287598,-0.183105,-0.061035,0.061035,21.29,0
869901939,22238.742582,1777901070.337657,-465,-1899,-592,-3,-2,0,-0.227051,-0.927246,-0.289062,-0.183105,-0.122070,0.000000,21.26,0
869902949,22238.742593,1777901070.338666,-465,-1898,-591,-3,-3,-1,-0.227051,-0.926758,-0.288574,-0.183105,-0.183105,-0.061035,21.17,0
869903963,22238.742604,1777901070.339680,-465,-1898,-589,-3,-2,0,-0.227051,-0.926758,-0.287598,-0.183105,-0.122070,0.000000,21.17,0
869904976,22238.742615,1777901070.340692,-466,-1901,-591,-3,-1,0,-0.227539,-0.928223,-0.288574,-0.183105,-0.061035,0.000000,21.17,0
869905987,22238.742625,1777901070.341702,-469,-1902,-593,-2,-1,-1,-0.229004,-0.928711,-0.289551,-0.122070,-0.061035,-0.061035,21.09,0
869906999,22238.750589,1777901070.342714,-470,-1898,-594,-2,-1,-1,-0.229492,-0.926758,-0.290039,-0.122070,-0.061035,-0.061035,21.29,0
869908010,22238.750610,1777901070.343724,-468,-1897,-593,-3,-1,-1,-0.228516,-0.926270,-0.289551,-0.183105,-0.061035,-0.061035,21.23,0
869909025,22238.750623,1777901070.344737,-466,-1897,-590,-3,-1,0,-0.227539,-0.926270,-0.288086,-0.183105,-0.061035,0.000000,21.17,1
869910034,22238.750635,1777901070.345746,-467,-1897,-592,-3,-1,0,-0.228027,-0.926270,-0.289062,-0.183105,-0.061035,0.000000,21.23,0
869911049,22238.750646,1777901070.346760,-469,-1897,-592,-2,0,0,-0.229004,-0.926270,-0.289062,-0.122070,0.000000,0.000000,21.41,0
869912060,22238.750657,1777901070.347770,-470,-1896,-593,-3,0,0,-0.229492,-0.925781,-0.289551,-0.183105,0.000000,0.000000,21.09,0
869913071,22238.750667,1777901070.348780,-467,-1897,-597,-4,-1,0,-0.228027,-0.926270,-0.291504,-0.244141,-0.061035,0.000000,21.09,0
869914096,22238.750678,1777901070.349805,-467,-1895,-593,-4,-1,0,-0.228027,-0.925293,-0.289551,-0.244141,-0.061035,0.000000,21.06,0
869915101,22238.758657,1777901070.350809,-470,-1894,-588,-3,-1,0,-0.229492,-0.924805,-0.287109,-0.183105,-0.061035,0.000000,21.17,0
869916108,22238.758678,1777901070.351815,-468,-1894,-591,-3,0,-1,-0.228516,-0.924805,-0.288574,-0.183105,0.000000,-0.061035,21.15,0
869917123,22238.758689,1777901070.352830,-466,-1895,-593,-3,0,-1,-0.227539,-0.925293,-0.289551,-0.183105,0.000000,-0.061035,21.27,0
869918134,22238.758700,1777901070.353840,-469,-1898,-588,-3,0,0,-0.229004,-0.926758,-0.287109,-0.183105,0.000000,0.000000,21.07,0
869919146,22238.758711,1777901070.354851,-470,-1898,-587,-4,0,0,-0.229492,-0.926758,-0.286621,-0.244141,0.000000,0.000000,21.17,0
869920157,22238.758722,1777901070.355862,-468,-1895,-588,-3,-1,0,-0.228516,-0.925293,-0.287109,-0.183105,-0.061035,0.000000,21.14,1
869921171,22238.758734,1777901070.356875,-466,-1896,-589,-3,-2,0,-0.227539,-0.925781,-0.287598,-0.183105,-0.122070,0.000000,21.17,0
869922182,22238.758745,1777901070.357886,-467,-1896,-588,-4,-3,1,-0.228027,-0.925781,-0.287109,-0.244141,-0.183105,0.061035,21.29,0
869923195,22238.766759,1777901070.358899,-467,-1893,-588,-3,-2,1,-0.228027,-0.924316,-0.287109,-0.183105,-0.122070,0.061035,21.24,0
869924208,22238.766775,1777901070.359911,-466,-1896,-590,-2,-1,0,-0.227539,-0.925781,-0.288086,-0.122070,-0.061035,0.000000,21.14,0
869925218,22238.766782,1777901070.360920,-467,-1897,-590,-3,-2,0,-0.228027,-0.926270,-0.288086,-0.183105,-0.122070,0.000000,21.29,0
869926231,22238.766790,1777901070.361933,-468,-1898,-587,-3,-2,1,-0.228516,-0.926758,-0.286621,-0.183105,-0.122070,0.061035,21.24,0
869927245,22238.766797,1777901070.362946,-468,-1898,-588,-2,-2,1,-0.228516,-0.926758,-0.287109,-0.122070,-0.122070,0.061035,21.32,0
869928258,22238.766804,1777901070.363959,-469,-1894,-592,-2,-1,-1,-0.229004,-0.924805,-0.289062,-0.122070,-0.061035,-0.061035,21.29,0
869929269,22238.766811,1777901070.364969,-473,-1894,-591,-2,-1,-1,-0.230957,-0.924805,-0.288574,-0.122070,-0.061035,-0.061035,21.12,0
869930280,22238.766818,1777901070.365979,-472,-1896,-589,-4,-2,-1,-0.230469,-0.925781,-0.287598,-0.244141,-0.122070,-0.061035,21.18,0
869931292,22238.774843,1777901070.366990,-467,-1898,-588,-4,-2,0,-0.228027,-0.926758,-0.287109,-0.244141,-0.122070,0.000000,21.17,1
869932305,22238.774861,1777901070.368003,-467,-1899,-587,-3,-1,0,-0.228027,-0.927246,-0.286621,-0.183105,-0.061035,0.000000,21.20,0
869933319,22238.774869,1777901070.369016,-468,-1898,-587,-2,-1,0,-0.228516,-0.926758,-0.286621,-0.122070,-0.061035,0.000000,21.14,0
869934331,22238.774876,1777901070.370027,-467,-1897,-592,-1,-1,1,-0.228027,-0.926270,-0.289062,-0.061035,-0.061035,0.061035,21.29,0
869935343,22238.774883,1777901070.371039,-467,-1897,-596,-2,-1,0,-0.228027,-0.926270,-0.291016,-0.122070,-0.061035,0.000000,21.36,0
869936354,22238.774890,1777901070.372049,-468,-1900,-592,-3,-1,0,-0.228516,-0.927734,-0.289062,-0.183105,-0.061035,0.000000,21.18,0
869937368,22238.774897,1777901070.373062,-467,-1902,-589,-4,0,0,-0.228027,-0.928711,-0.287598,-0.244141,0.000000,0.000000,21.32,0
869938380,22238.774904,1777901070.374074,-469,-1900,-588,-3,-1,-1,-0.229004,-0.927734,-0.287109,-0.183105,-0.061035,-0.061035,21.24,0
