esp_timestamp_us,host_timestamp_s,unified_time_s,accel_x_raw,accel_y_raw,accel_z_raw,gyro_x_raw,gyro_y_raw,gyro_z_raw,accel_x_g,accel_y_g,accel_z_g,gyro_x_dps,gyro_y_dps,gyro_z_dps,temperature_c,fsync_flag
346263571,26321.001370,1777992358.044005,257,-1269,-1557,-3,-2,0,0.125488,-0.619629,-0.760254,-0.183105,-0.122070,0.000000,21.07,0
346264582,26321.001419,1777992358.045016,257,-1268,-1559,-3,-2,-1,0.125488,-0.619141,-0.761230,-0.183105,-0.122070,-0.061035,21.20,0
346265595,26321.001426,1777992358.046029,257,-1266,-1562,-3,-1,-1,0.125488,-0.618164,-0.762695,-0.183105,-0.061035,-0.061035,21.09,0
346266607,26321.001432,1777992358.047041,258,-1265,-1564,-4,-2,0,0.125977,-0.617676,-0.763672,-0.244141,-0.122070,0.000000,21.06,0
346267618,26321.001438,1777992358.048052,258,-1263,-1566,-5,-2,0,0.125977,-0.616699,-0.764648,-0.305176,-0.122070,0.000000,20.89,0
346268632,26321.001444,1777992358.049066,254,-1264,-1564,-4,-2,0,0.124023,-0.617188,-0.763672,-0.244141,-0.122070,0.000000,21.01,0
346269644,26321.001450,1777992358.050078,251,-1265,-1561,-4,-1,-1,0.122559,-0.617676,-0.762207,-0.244141,-0.061035,-0.061035,21.03,0
346270656,26321.001456,1777992358.051090,256,-1266,-1560,-3,0,-2,0.125000,-0.618164,-0.761719,-0.183105,0.000000,-0.122070,21.06,0
346271669,26321.009525,1777992358.052103,258,-1265,-1560,-3,0,0,0.125977,-0.617676,-0.761719,-0.183105,0.000000,0.000000,21.07,0
346272680,26321.009551,1777992358.053114,256,-1263,-1560,-3,-1,0,0.125000,-0.616699,-0.761719,-0.183105,-0.061035,0.000000,21.17,1
346273693,26321.009562,1777992456.032031,254,-1265,-1559,-3,-2,-1,0.124023,-0.617676,-0.761230,-0.183105,-0.122070,-0.061035,21.07,0
346274704,26321.009572,1777992440.587125,254,-1266,-1561,-3,-2,-2,0.124023,-0.618164,-0.762207,-0.183105,-0.122070,-0.122070,21.09,0
346275718,26321.009581,1777992423.236111,254,-1265,-1562,-3,-1,-1,0.124023,-0.617676,-0.762695,-0.183105,-0.061035,-0.061035,21.11,0
346276729,26321.009591,1777992407.244024,254,-1266,-1561,-2,-1,-1,0.124023,-0.618164,-0.762207,-0.122070,-0.061035,-0.061035,21.01,0
346277742,26321.009600,1777992391.134656,257,-1266,-1560,-3,-2,-1,0.125488,-0.618164,-0.761719,-0.183105,-0.122070,-0.061035,20.98,0
346278752,26321.009609,1777992375.884336,258,-1268,-1562,-4,-1,-1,0.125977,-0.619141,-0.762695,-0.244141,-0.061035,-0.061035,21.04,0
346279766,26321.017587,1777992358.504244,253,-1268,-1562,-4,-1,-1,0.123535,-0.619141,-0.762695,-0.244141,-0.061035,-0.061035,20.95,0
346280779,26321.017605,1777992383.980936,255,-1264,-1561,-3,-1,-2,0.124512,-0.617188,-0.762207,-0.183105,-0.061035,-0.122070,21.04,0
346281791,26321.017615,1777992389.888986,258,-1263,-1561,-3,-1,-1,0.125977,-0.616699,-0.762207,-0.183105,-0.061035,-0.061035,21.07,0
346282802,26321.017624,1777992390.109240,254,-1264,-1561,-4,-1,-1,0.124023,-0.617188,-0.762207,-0.244141,-0.061035,-0.061035,21.09,0
346283816,26321.017634,1777992386.211001,256,-1265,-1559,-4,-1,-1,0.125000,-0.617676,-0.761230,-0.244141,-0.061035,-0.061035,21.14,1
346284828,26321.017643,1777992381.332428,258,-1267,-1560,-3,-2,-1,0.125977,-0.618652,-0.761719,-0.183105,-0.122070,-0.061035,21.09,0
346285839,26321.017653,1777992375.138747,257,-1267,-1564,-4,-2,-1,0.125488,-0.618652,-0.763672,-0.244141,-0.122070,-0.061035,21.14,0
346286853,26321.017662,1777992368.095336,256,-1265,-1564,-4,-2,-1,0.125000,-0.617676,-0.763672,-0.244141,-0.122070,-0.061035,21.09,0
346287862,26321.025695,1777992358.045489,256,-1266,-1560,-3,-1,0,0.125000,-0.618164,-0.761719,-0.183105,-0.061035,0.000000,21.12,0
346288876,26321.025712,1777992358.046501,255,-1267,-1560,-4,-1,-1,0.124512,-0.618652,-0.761719,-0.244141,-0.061035,-0.061035,21.17,0
346289887,26321.025722,1777992358.047510,255,-1266,-1563,-3,-1,-1,0.124512,-0.618164,-0.763184,-0.183105,-0.061035,-0.061035,21.20,0
346290901,26321.025732,1777992358.048522,257,-1264,-1564,-3,-1,-1,0.125488,-0.617188,-0.763672,-0.183105,-0.061035,-0.061035,21.07,0
346291914,26321.025741,1777992358.049533,256,-1265,-1563,-3,0,0,0.125000,-0.617676,-0.763184,-0.183105,0.000000,0.000000,21.11,0
346292925,26321.025751,1777992358.050542,256,-1268,-1563,-3,0,0,0.125000,-0.619141,-0.763184,-0.183105,0.000000,0.000000,21.12,0
346293938,26321.025760,1777992358.051553,256,-1266,-1563,-4,-1,-1,0.125000,-0.618164,-0.763184,-0.244141,-0.061035,-0.061035,21.26,0
346294950,26321.025769,1777992358.052562,253,-1263,-1559,-4,-2,-1,0.123535,-0.616699,-0.761230,-0.244141,-0.122070,-0.061035,20.98,1
346295962,26321.033798,1777992358.053588,255,-1264,-1558,-4,-2,0,0.124512,-0.617188,-0.760742,-0.244141,-0.122070,0.000000,21.00,0
346296973,26321.033819,1777992358.054598,260,-1266,-1559,-3,-1,1,0.126953,-0.618164,-0.761230,-0.183105,-0.061035,0.061035,21.07,0
346297986,26321.033830,1777992358.055609,258,-1265,-1559,-3,-1,0,0.125977,-0.617676,-0.761230,-0.183105,-0.061035,0.000000,21.07,0
346298999,26321.033841,1777992358.056621,257,-1263,-1560,-3,-1,0,0.125488,-0.616699,-0.761719,-0.183105,-0.061035,0.000000,21.04,0
346300009,26321.033851,1777992358.057630,260,-1265,-1561,-4,-1,0,0.126953,-0.617676,-0.762207,-0.244141,-0.061035,0.000000,21.01,0
346301023,26321.033861,1777992358.058643,259,-1267,-1563,-4,-1,0,0.126465,-0.618652,-0.763184,-0.244141,-0.061035,0.000000,21.04,0
346302035,26321.033872,1777992358.059653,256,-1265,-1563,-3,-1,-2,0.125000,-0.617676,-0.763184,-0.183105,-0.061035,-0.122070,21.11,0
346303048,26321.033882,1777992358.060665,257,-1265,-1560,-3,-1,-2,0.125488,-0.617676,-0.761719,-0.183105,-0.061035,-0.122070,20.92,0
346304061,26321.041871,1777992358.061677,258,-1266,-1561,-3,0,-1,0.125977,-0.618164,-0.762207,-0.183105,0.000000,-0.061035,21.01,0
346305073,26321.041886,1777992358.062688,255,-1264,-1563,-4,0,-1,0.124512,-0.617188,-0.763184,-0.244141,0.000000,-0.061035,21.14,0
346306084,26321.041896,1777992358.063701,255,-1265,-1561,-4,-1,-2,0.124512,-0.617676,-0.762207,-0.244141,-0.061035,-0.122070,21.07,1
346307106,26321.041906,1777992358.064722,258,-1267,-1559,-5,-1,-2,0.125977,-0.618652,-0.761230,-0.305176,-0.061035,-0.122070,21.07,0
346308110,26321.041915,1777992358.065725,257,-1266,-1557,-4,-1,-1,0.125488,-0.618164,-0.760254,-0.244141,-0.061035,-0.061035,21.12,0
346309121,26321.041925,1777992358.066735,254,-1265,-1557,-3,-1,-1,0.124023,-0.617676,-0.760254,-0.183105,-0.061035,-0.061035,21.06,0
346310132,26321.041935,1777992358.067745,256,-1266,-1556,-3,-1,-1,0.125000,-0.618164,-0.759766,-0.183105,-0.061035,-0.061035,21.11,0
346311147,26321.041944,1777992358.068759,258,-1268,-1558,-4,-1,0,0.125977,-0.619141,-0.760742,-0.244141,-0.061035,0.000000,21.20,0
346312158,26321.049981,1777992358.069769,258,-1267,-1561,-4,-1,0,0.125977,-0.618652,-0.762207,-0.244141,-0.061035,0.000000,21.07,0
346313171,26321.050007,1777992358.070781,258,-1265,-1561,-4,-1,1,0.125977,-0.617676,-0.762207,-0.244141,-0.061035,0.061035,21.07,0
346314182,26321.050017,1777992358.071791,255,-1263,-1561,-4,-1,1,0.124512,-0.616699,-0.762207,-0.244141,-0.061035,0.061035,21.07,0
346315193,26321.050027,1777992358.072801,254,-1265,-1562,-3,-1,0,0.124023,-0.617676,-0.762695,-0.183105,-0.061035,0.000000,21.11,0
346316208,26321.050037,1777992358.073815,257,-1267,-1560,-2,-1,-1,0.125488,-0.618652,-0.761719,-0.122070,-0.061035,-0.061035,21.11,0
346317218,26321.050047,1777992358.074824,256,-1266,-1559,-3,-1,-2,0.125000,-0.618164,-0.761230,-0.183105,-0.061035,-0.122070,21.11,1
346318230,26321.050079,1777992358.075835,255,-1265,-1562,-3,0,-1,0.124512,-0.617676,-0.762695,-0.183105,0.000000,-0.061035,21.21,0
346319244,26321.050089,1777992358.076848,257,-1267,-1563,-3,-1,0,0.125488,-0.618652,-0.763184,-0.183105,-0.061035,0.000000,21.00,0
346320255,26321.058074,1777992358.077856,259,-1269,-1561,-3,-2,0,0.126465,-0.619629,-0.762207,-0.183105,-0.122070,0.000000,21.14,0
346321269,26321.058112,1777992358.078869,259,-1268,-1559,-4,-2,-1,0.126465,-0.619141,-0.761230,-0.244141,-0.122070,-0.061035,21.04,0
346322281,26321.058122,1777992358.079880,260,-1267,-1559,-4,-2,0,0.126953,-0.618652,-0.761230,-0.244141,-0.122070,0.000000,21.11,0
346323293,26321.058136,1777992358.080890,259,-1266,-1561,-3,-2,0,0.126465,-0.618164,-0.762207,-0.183105,-0.122070,0.000000,21.07,0
346324305,26321.058154,1777992358.081901,257,-1267,-1562,-3,-2,0,0.125488,-0.618652,-0.762695,-0.183105,-0.122070,0.000000,20.98,0
346325316,26321.058237,1777992358.082911,257,-1269,-1561,-3,-1,0,0.125488,-0.619629,-0.762207,-0.183105,-0.061035,0.000000,21.09,0
346326330,26321.058247,1777992358.083924,260,-1267,-1560,-3,-1,-1,0.126953,-0.618652,-0.761719,-0.183105,-0.061035,-0.061035,21.11,0
346327341,26321.058257,1777992358.084934,258,-1266,-1560,-3,-1,-1,0.125977,-0.618164,-0.761719,-0.183105,-0.061035,-0.061035,21.06,0
346328353,26321.066163,1777992358.085947,256,-1267,-1559,-4,-1,0,0.125000,-0.618652,-0.761230,-0.244141,-0.061035,0.000000,21.04,1
346329367,26321.066186,1777992358.086959,258,-1264,-1559,-3,-1,-1,0.125977,-0.617188,-0.761230,-0.183105,-0.061035,-0.061035,21.07,0
346330380,26321.066198,1777992358.087971,256,-1261,-1560,-3,-1,-1,0.125000,-0.615723,-0.761719,-0.183105,-0.061035,-0.061035,21.11,0
346331391,26321.066207,1777992358.088981,253,-1265,-1560,-3,-1,-1,0.123535,-0.617676,-0.761719,-0.183105,-0.061035,-0.061035,21.01,0
346332402,26321.066217,1777992358.089991,256,-1267,-1563,-4,-1,0,0.125000,-0.618652,-0.763184,-0.244141,-0.061035,0.000000,21.11,0
346333416,26321.066226,1777992358.091004,256,-1265,-1561,-3,-2,0,0.125000,-0.617676,-0.762207,-0.183105,-0.122070,0.000000,20.86,0
346334427,26321.066236,1777992358.092014,255,-1265,-1559,-3,-2,0,0.124512,-0.617676,-0.761230,-0.183105,-0.122070,0.000000,21.00,0
346335439,26321.066246,1777992358.093025,261,-1266,-1561,-3,-1,-1,0.127441,-0.618164,-0.762207,-0.183105,-0.061035,-0.061035,21.00,0
346336452,26321.074369,1777992358.094037,263,-1263,-1561,-4,-1,-1,0.128418,-0.616699,-0.762207,-0.244141,-0.061035,-0.061035,21.00,0
346337464,26321.074390,1777992358.095048,260,-1264,-1560,-4,-2,-1,0.126953,-0.617188,-0.761719,-0.244141,-0.122070,-0.061035,21.11,0
346338478,26321.074399,1777992358.096061,257,-1267,-1562,-4,-2,-1,0.125488,-0.618652,-0.762695,-0.244141,-0.122070,-0.061035,21.07,0
346339487,26321.074405,1777992358.097066,255,-1267,-1562,-3,-2,-1,0.124512,-0.618652,-0.762695,-0.183105,-0.122070,-0.061035,21.15,1
346340501,26321.074413,1777992358.098078,256,-1267,-1561,-3,-2,-2,0.125000,-0.618652,-0.762207,-0.183105,-0.122070,-0.122070,21.21,0
346341512,26321.074419,1777992358.099088,258,-1266,-1563,-3,-2,-1,0.125977,-0.618164,-0.763184,-0.183105,-0.122070,-0.061035,21.14,0
346342525,26321.074425,1777992358.100100,259,-1265,-1564,-3,-2,-1,0.126465,-0.617676,-0.763672,-0.183105,-0.122070,-0.061035,21.00,0
346343537,26321.074431,1777992358.101111,259,-1266,-1567,-3,-2,-1,0.126465,-0.618164,-0.765137,-0.183105,-0.122070,-0.061035,21.24,0
346344551,26321.082371,1777992358.102124,258,-1266,-1565,-3,-1,-1,0.125977,-0.618164,-0.764160,-0.183105,-0.061035,-0.061035,21.41,0
346345562,26321.082389,1777992358.103134,257,-1266,-1559,-3,-2,-1,0.125488,-0.618164,-0.761230,-0.183105,-0.122070,-0.061035,21.04,0
346346574,26321.082400,1777992358.104145,259,-1265,-1560,-3,-2,0,0.126465,-0.617676,-0.761719,-0.183105,-0.122070,0.000000,21.09,0
346347588,26321.082410,1777992358.105158,258,-1265,-1563,-4,-1,1,0.125977,-0.617676,-0.763184,-0.244141,-0.061035,0.061035,21.11,0
346348599,26321.082420,1777992358.106168,255,-1268,-1561,-3,0,1,0.124512,-0.619141,-0.762207,-0.183105,0.000000,0.061035,21.12,0
346349611,26321.082430,1777992358.107178,255,-1270,-1559,-2,-1,1,0.124512,-0.620117,-0.761230,-0.122070,-0.061035,0.061035,21.01,0
346350623,26321.082440,1777992358.108189,257,-1268,-1559,-3,-2,0,0.125488,-0.619141,-0.761230,-0.183105,-0.122070,0.000000,21.18,1
346351637,26321.082450,1777992358.109202,256,-1266,-1563,-4,-3,0,0.125000,-0.618164,-0.763184,-0.244141,-0.183105,0.000000,21.12,0
346352647,26321.090519,1777992358.110209,253,-1267,-1563,-4,-2,-1,0.123535,-0.618652,-0.763184,-0.244141,-0.122070,-0.061035,21.01,0
346353661,26321.090535,1777992358.111222,252,-1268,-1561,-3,-1,-1,0.123047,-0.619141,-0.762207,-0.183105,-0.061035,-0.061035,21.03,0
346354673,26321.090542,1777992358.112232,254,-1266,-1562,-3,-1,-1,0.124023,-0.618164,-0.762695,-0.183105,-0.061035,-0.061035,21.04,0
346355686,26321.090549,1777992358.113244,256,-1265,-1564,-4,-2,0,0.125000,-0.617676,-0.763672,-0.244141,-0.122070,0.000000,21.06,0
346356697,26321.090555,1777992358.114254,259,-1262,-1562,-4,-2,0,0.126465,-0.616211,-0.762695,-0.244141,-0.122070,0.000000,21.00,0
346357708,26321.090562,1777992358.115264,260,-1263,-1561,-4,-1,0,0.126953,-0.616699,-0.762207,-0.244141,-0.061035,0.000000,21.07,0
346358721,26321.090568,1777992358.116276,257,-1267,-1562,-3,-1,0,0.125488,-0.618652,-0.762695,-0.183105,-0.061035,0.000000,20.98,0
346359732,26321.090574,1777992358.117285,255,-1269,-1561,-3,-1,0,0.124512,-0.619629,-0.762207,-0.183105,-0.061035,0.000000,21.00,0
346360745,26321.098576,1777992358.118297,257,-1270,-1557,-3,0,0,0.125488,-0.620117,-0.760254,-0.183105,0.000000,0.000000,21.07,0
346361758,26321.098592,1777992358.119309,259,-1268,-1555,-3,0,0,0.126465,-0.619141,-0.759277,-0.183105,0.000000,0.000000,20.97,1
346362772,26321.098603,1777992358.120322,258,-1265,-1557,-3,-1,-1,0.125977,-0.617676,-0.760254,-0.183105,-0.061035,-0.061035,21.04,0
346363783,26321.098614,1777992358.121332,257,-1264,-1559,-4,-1,-1,0.125488,-0.617188,-0.761230,-0.244141,-0.061035,-0.061035,20.97,0
346364796,26321.098624,1777992358.122344,257,-1264,-1560,-4,-1,-1,0.125488,-0.617188,-0.761719,-0.244141,-0.061035,-0.061035,21.09,0
346365808,26321.098633,1777992358.123355,258,-1267,-1557,-3,-2,-1,0.125977,-0.618652,-0.760254,-0.183105,-0.122070,-0.061035,21.07,0
346366820,26321.098643,1777992358.124366,259,-1270,-1557,-3,-1,-1,0.126465,-0.620117,-0.760254,-0.183105,-0.061035,-0.061035,21.20,0
346367830,26321.098652,1777992358.125375,258,-1265,-1562,-3,-2,-1,0.125977,-0.617676,-0.762695,-0.183105,-0.122070,-0.061035,21.03,0
346368843,26321.106688,1777992358.126386,258,-1263,-1564,-3,-2,-2,0.125977,-0.616699,-0.763672,-0.183105,-0.122070,-0.122070,21.06,0
346369857,26321.106705,1777992358.127399,258,-1263,-1563,-3,-2,-1,0.125977,-0.616699,-0.763184,-0.183105,-0.122070,-0.061035,21.15,0
346370869,26321.106715,1777992358.128410,257,-1262,-1560,-4,-2,-1,0.125488,-0.616211,-0.761719,-0.244141,-0.122070,-0.061035,21.03,0
346371880,26321.106724,1777992358.129420,255,-1264,-1560,-4,-1,-1,0.124512,-0.617188,-0.761719,-0.244141,-0.061035,-0.061035,21.04,0
346372893,26321.106734,1777992358.130430,257,-1267,-1565,-3,-1,-1,0.125488,-0.618652,-0.764160,-0.183105,-0.061035,-0.061035,21.11,1
346373904,26321.106744,1777992358.131440,259,-1267,-1565,-3,-1,0,0.126465,-0.618652,-0.764160,-0.183105,-0.061035,0.000000,21.11,0
346374919,26321.106754,1777992358.132454,257,-1264,-1562,-4,-1,0,0.125488,-0.617188,-0.762695,-0.244141,-0.061035,0.000000,21.07,0
346375930,26321.106763,1777992358.133464,256,-1263,-1563,-4,-1,-1,0.125000,-0.616699,-0.763184,-0.244141,-0.061035,-0.061035,21.01,0
346376942,26321.114771,1777992358.134475,261,-1265,-1559,-3,-2,-2,0.127441,-0.617676,-0.761230,-0.183105,-0.122070,-0.122070,21.06,0
346377954,26321.114804,1777992358.135485,262,-1267,-1553,-2,-2,-1,0.127930,-0.618652,-0.758301,-0.122070,-0.122070,-0.061035,20.98,0
346378967,26321.114815,1777992358.136497,254,-1267,-1556,-3,-2,-1,0.124023,-0.618652,-0.759766,-0.183105,-0.122070,-0.061035,21.11,0
346379978,26321.114826,1777992358.137507,256,-1263,-1559,-3,-1,-1,0.125000,-0.616699,-0.761230,-0.183105,-0.061035,-0.061035,21.07,0
346380990,26321.114836,1777992358.138518,262,-1265,-1561,-3,0,0,0.127930,-0.617676,-0.762207,-0.183105,0.000000,0.000000,21.09,0
346382005,26321.114845,1777992358.139532,261,-1267,-1566,-3,0,0,0.127441,-0.618652,-0.764648,-0.183105,0.000000,0.000000,21.17,0
346383016,26321.114855,1777992358.140541,259,-1266,-1563,-3,-2,-1,0.126465,-0.618164,-0.763184,-0.183105,-0.122070,-0.061035,21.11,0
346384028,26321.114865,1777992358.141552,257,-1264,-1556,-4,-2,-1,0.125488,-0.617188,-0.759766,-0.244141,-0.122070,-0.061035,21.23,1
346385041,26321.122861,1777992358.142563,253,-1265,-1557,-4,-1,-1,0.123535,-0.617676,-0.760254,-0.244141,-0.061035,-0.061035,21.09,0
346386052,26321.122881,1777992358.143573,254,-1265,-1562,-4,0,-1,0.124023,-0.617676,-0.762695,-0.244141,0.000000,-0.061035,21.09,0
346387066,26321.122891,1777992358.144586,253,-1268,-1564,-2,-2,-1,0.123535,-0.619141,-0.763672,-0.122070,-0.122070,-0.061035,21.11,0
346388077,26321.122946,1777992358.145596,254,-1268,-1560,-2,-2,-1,0.124023,-0.619141,-0.761719,-0.122070,-0.122070,-0.061035,21.03,0
346389088,26321.122956,1777992358.146605,258,-1262,-1560,-2,-1,-1,0.125977,-0.616211,-0.761719,-0.122070,-0.061035,-0.061035,21.04,0
346390107,26321.122966,1777992358.147623,256,-1262,-1562,-3,-1,-1,0.125000,-0.616211,-0.762695,-0.183105,-0.061035,-0.061035,21.23,0
346391114,26321.122976,1777992358.148629,254,-1265,-1562,-3,-2,-1,0.124023,-0.617676,-0.762695,-0.183105,-0.122070,-0.061035,21.14,0
346392126,26321.122986,1777992358.149640,254,-1266,-1562,-3,-2,-1,0.124023,-0.618164,-0.762695,-0.183105,-0.122070,-0.061035,20.98,0
346393139,26321.130955,1777992358.150652,256,-1265,-1562,-3,-1,-1,0.125000,-0.617676,-0.762695,-0.183105,-0.061035,-0.061035,21.07,0
346394151,26321.130983,1777992358.151662,257,-1264,-1561,-3,-1,-1,0.125488,-0.617188,-0.762207,-0.183105,-0.061035,-0.061035,21.00,0
346395163,26321.130994,1777992358.152676,258,-1264,-1560,-3,-2,-2,0.125977,-0.617188,-0.761719,-0.183105,-0.122070,-0.122070,20.92,1
346396175,26321.131013,1777992358.153687,262,-1265,-1560,-3,-1,-2,0.127930,-0.617676,-0.761719,-0.183105,-0.061035,-0.122070,21.07,0
346397187,26321.131023,1777992358.154698,258,-1264,-1559,-3,0,0,0.125977,-0.617188,-0.761230,-0.183105,0.000000,0.000000,21.01,0
346398198,26321.131032,1777992358.155708,255,-1263,-1557,-4,-1,0,0.124512,-0.616699,-0.760254,-0.244141,-0.061035,0.000000,21.11,0
346399213,26321.131042,1777992358.156721,258,-1266,-1555,-4,-1,-1,0.125977,-0.618164,-0.759277,-0.244141,-0.061035,-0.061035,21.09,0
346400225,26321.131052,1777992358.157732,259,-1266,-1557,-3,-1,-1,0.126465,-0.618164,-0.760254,-0.183105,-0.061035,-0.061035,21.07,0
346401235,26321.139069,1777992358.158741,258,-1264,-1559,-2,-1,0,0.125977,-0.617188,-0.761230,-0.122070,-0.061035,0.000000,21.14,0
346402249,26321.139102,1777992358.159754,257,-1266,-1561,-3,-2,0,0.125488,-0.618164,-0.762207,-0.183105,-0.122070,0.000000,21.06,0
346403262,26321.139113,1777992358.160766,254,-1270,-1560,-4,-3,-1,0.124023,-0.620117,-0.761719,-0.244141,-0.183105,-0.061035,21.06,0
346404274,26321.139122,1777992358.161777,253,-1271,-1561,-3,-2,-1,0.123535,-0.620605,-0.762207,-0.183105,-0.122070,-0.061035,21.12,0
346405286,26321.139132,1777992358.162787,255,-1266,-1562,-3,-1,0,0.124512,-0.618164,-0.762695,-0.183105,-0.061035,0.000000,21.23,0
346406297,26321.139142,1777992358.163797,259,-1266,-1563,-4,-2,0,0.126465,-0.618164,-0.763184,-0.244141,-0.122070,0.000000,21.11,1
346407310,26321.139152,1777992358.164809,259,-1270,-1561,-5,-2,0,0.126465,-0.620117,-0.762207,-0.305176,-0.122070,0.000000,21.07,0
346408321,26321.139162,1777992358.165819,257,-1268,-1558,-3,-1,-1,0.125488,-0.619141,-0.760742,-0.183105,-0.061035,-0.061035,21.33,0
346409334,26321.147168,1777992358.166829,256,-1266,-1560,-3,-1,-1,0.125000,-0.618164,-0.761719,-0.183105,-0.061035,-0.061035,21.15,0
346410346,26321.147187,1777992358.167839,254,-1266,-1561,-3,-2,-1,0.124023,-0.618164,-0.762207,-0.183105,-0.122070,-0.061035,21.23,0
346411359,26321.147194,1777992358.168851,254,-1266,-1564,-3,-1,-1,0.124023,-0.618164,-0.763672,-0.183105,-0.061035,-0.061035,21.07,0
346412371,26321.147200,1777992358.169862,255,-1270,-1565,-4,0,-1,0.124512,-0.620117,-0.764160,-0.244141,0.000000,-0.061035,21.04,0
346413382,26321.147207,1777992358.170872,255,-1271,-1560,-5,-1,-1,0.124512,-0.620605,-0.761719,-0.305176,-0.061035,-0.061035,20.94,0
346414396,26321.147213,1777992358.171885,256,-1268,-1559,-4,-1,-1,0.125000,-0.619141,-0.761230,-0.244141,-0.061035,-0.061035,21.23,0
346415407,26321.147220,1777992358.172894,255,-1266,-1565,-3,-1,-1,0.124512,-0.618164,-0.764160,-0.183105,-0.061035,-0.061035,21.06,0
346416418,26321.147226,1777992358.173904,256,-1265,-1567,-3,-2,-2,0.125000,-0.617676,-0.765137,-0.183105,-0.122070,-0.122070,21.11,0
346417431,26321.156530,1777992358.174916,258,-1266,-1561,-3,-2,-1,0.125977,-0.618164,-0.762207,-0.183105,-0.122070,-0.061035,21.04,1
346418445,26321.156551,1777992358.175929,257,-1265,-1559,-3,-1,-1,0.125488,-0.617676,-0.761230,-0.183105,-0.061035,-0.061035,21.07,0
346419455,26321.156563,1777992358.176938,256,-1264,-1563,-3,-1,0,0.125000,-0.617188,-0.763184,-0.183105,-0.061035,0.000000,21.15,0
346420468,26321.156573,1777992358.177949,258,-1266,-1564,-4,-2,0,0.125977,-0.618164,-0.763672,-0.244141,-0.122070,0.000000,21.12,0
346421482,26321.156583,1777992358.178962,256,-1267,-1562,-4,-2,0,0.125000,-0.618652,-0.762695,-0.244141,-0.122070,0.000000,21.07,0
346422494,26321.156592,1777992358.179973,253,-1266,-1562,-4,0,-1,0.123535,-0.618164,-0.762695,-0.244141,0.000000,-0.061035,20.98,0
346423506,26321.156602,1777992358.180984,253,-1265,-1563,-4,0,-1,0.123535,-0.617676,-0.763184,-0.244141,0.000000,-0.061035,21.11,0
346424517,26321.156612,1777992358.181994,255,-1266,-1561,-4,-1,0,0.124512,-0.618164,-0.762207,-0.244141,-0.061035,0.000000,21.07,0
346425531,26321.163364,1777992358.183007,258,-1266,-1559,-3,-1,-1,0.125977,-0.618164,-0.761230,-0.183105,-0.061035,-0.061035,21.12,0
346426543,26321.163386,1777992358.184017,257,-1263,-1559,-3,-1,-1,0.125488,-0.616699,-0.761230,-0.183105,-0.061035,-0.061035,21.09,0
346427555,26321.163397,1777992358.185028,256,-1263,-1560,-3,-1,-1,0.125000,-0.616699,-0.761719,-0.183105,-0.061035,-0.061035,21.29,0
346428566,26321.163407,1777992358.186038,258,-1265,-1559,-4,-1,-1,0.125977,-0.617676,-0.761230,-0.244141,-0.061035,-0.061035,21.03,1
346429579,26321.163417,1777992358.187050,256,-1269,-1559,-6,-2,-1,0.125000,-0.619629,-0.761230,-0.366211,-0.122070,-0.061035,21.30,0
346430592,26321.163427,1777992358.188061,255,-1270,-1561,-5,-2,-1,0.124512,-0.620117,-0.762207,-0.305176,-0.122070,-0.061035,21.26,0
346431603,26321.163437,1777992358.189071,257,-1267,-1562,-3,-2,-1,0.125488,-0.618652,-0.762695,-0.183105,-0.122070,-0.061035,21.29,0
346432617,26321.163447,1777992358.190084,257,-1264,-1560,-4,-2,-1,0.125488,-0.617188,-0.761719,-0.244141,-0.122070,-0.061035,21.07,0
346433627,26321.171539,1777992358.191093,257,-1265,-1559,-5,-2,-1,0.125488,-0.617676,-0.761230,-0.305176,-0.122070,-0.061035,21.20,0
346434641,26321.171579,1777992358.192106,259,-1264,-1562,-4,-2,-1,0.126465,-0.617188,-0.762695,-0.244141,-0.122070,-0.061035,21.09,0
346435654,26321.171591,1777992358.193117,259,-1262,-1563,-4,-2,0,0.126465,-0.616211,-0.763184,-0.244141,-0.122070,0.000000,21.07,0
346436666,26321.171602,1777992358.194128,257,-1264,-1560,-4,-2,0,0.125488,-0.617188,-0.761719,-0.244141,-0.122070,0.000000,21.07,0
346437677,26321.171612,1777992358.195138,257,-1267,-1558,-3,-1,-1,0.125488,-0.618652,-0.760742,-0.183105,-0.061035,-0.061035,21.03,0
346438688,26321.171622,1777992358.196148,257,-1266,-1559,-3,-1,-1,0.125488,-0.618164,-0.761230,-0.183105,-0.061035,-0.061035,21.21,0
346439700,26321.171631,1777992358.197159,255,-1263,-1559,-4,-2,-1,0.124512,-0.616699,-0.761230,-0.244141,-0.122070,-0.061035,21.07,1
346440713,26321.171642,1777992358.198170,254,-1263,-1560,-3,-2,-1,0.124023,-0.616699,-0.761719,-0.183105,-0.122070,-0.061035,21.14,0
346441725,26321.179527,1777992358.199182,258,-1263,-1560,-3,-1,-1,0.125977,-0.616699,-0.761719,-0.183105,-0.061035,-0.061035,21.14,0
346442738,26321.179548,1777992358.200194,258,-1264,-1563,-3,-1,-1,0.125977,-0.617188,-0.763184,-0.183105,-0.061035,-0.061035,21.15,0
346443749,26321.179559,1777992358.201204,257,-1267,-1564,-3,-1,-1,0.125488,-0.618652,-0.763672,-0.183105,-0.061035,-0.061035,21.14,0
346444762,26321.179569,1777992358.202215,257,-1268,-1560,-3,-1,0,0.125488,-0.619141,-0.761719,-0.183105,-0.061035,0.000000,21.20,0
346445776,26321.179579,1777992358.203228,257,-1265,-1557,-3,-2,1,0.125488,-0.617676,-0.760254,-0.183105,-0.122070,0.061035,21.06,0
346446789,26321.179589,1777992358.204240,256,-1263,-1559,-3,-1,0,0.125000,-0.616699,-0.761230,-0.183105,-0.061035,0.000000,21.11,0
346447801,26321.179599,1777992358.205251,254,-1266,-1561,-2,0,-2,0.124023,-0.618164,-0.762207,-0.122070,0.000000,-0.122070,21.12,0
346448811,26321.179609,1777992358.206260,252,-1268,-1560,-3,-1,-1,0.123047,-0.619141,-0.761719,-0.183105,-0.061035,-0.061035,21.41,0
346449825,26321.187635,1777992358.207273,257,-1266,-1559,-4,-3,0,0.125488,-0.618164,-0.761230,-0.244141,-0.183105,0.000000,21.11,0
346450836,26321.187690,1777992358.208280,258,-1266,-1560,-3,-3,-1,0.125977,-0.618164,-0.761719,-0.183105,-0.183105,-0.061035,21.07,1
346451850,26321.187698,1777992358.209293,256,-1264,-1561,-3,-3,-2,0.125000,-0.617188,-0.762207,-0.183105,-0.183105,-0.122070,21.04,0
346452862,26321.187705,1777992358.210304,256,-1261,-1558,-4,-2,-1,0.125000,-0.615723,-0.760742,-0.244141,-0.122070,-0.061035,20.98,0
346453872,26321.187712,1777992358.211312,255,-1261,-1557,-3,-1,-1,0.124512,-0.615723,-0.760254,-0.183105,-0.061035,-0.061035,21.07,0
346454886,26321.187718,1777992358.212325,255,-1266,-1555,-3,-1,-1,0.124512,-0.618164,-0.759277,-0.183105,-0.061035,-0.061035,20.95,0
346455897,26321.187725,1777992358.213335,254,-1266,-1557,-3,0,-1,0.124023,-0.618164,-0.760254,-0.183105,0.000000,-0.061035,21.07,0
346456910,26321.187731,1777992358.214347,255,-1264,-1562,-4,-1,0,0.124512,-0.617188,-0.762695,-0.244141,-0.061035,0.000000,21.14,0
346457923,26321.195741,1777992358.215358,256,-1265,-1563,-4,-1,0,0.125000,-0.617676,-0.763184,-0.244141,-0.061035,0.000000,21.01,0
346458934,26321.195761,1777992358.216368,255,-1267,-1560,-5,-1,-1,0.124512,-0.618652,-0.761719,-0.305176,-0.061035,-0.061035,21.12,0
346459946,26321.195771,1777992358.217379,257,-1268,-1560,-4,-1,-1,0.125488,-0.619141,-0.761719,-0.244141,-0.061035,-0.061035,21.07,0
346460959,26321.195782,1777992358.218391,259,-1267,-1561,-4,-2,0,0.126465,-0.618652,-0.762207,-0.244141,-0.122070,0.000000,21.15,0
346461970,26321.195792,1777992358.219402,260,-1269,-1562,-3,-2,0,0.126953,-0.619629,-0.762695,-0.183105,-0.122070,0.000000,21.07,1
346462984,26321.195804,1777992358.220415,259,-1268,-1563,-3,-2,0,0.126465,-0.619141,-0.763184,-0.183105,-0.122070,0.000000,21.04,0
346463994,26321.195817,1777992358.221424,258,-1266,-1560,-3,-2,0,0.125977,-0.618164,-0.761719,-0.183105,-0.122070,0.000000,21.14,0
346465007,26321.195829,1777992358.222435,259,-1268,-1559,-3,-2,0,0.126465,-0.619141,-0.761230,-0.183105,-0.122070,0.000000,21.21,0
346466021,26321.203841,1777992358.223448,259,-1269,-1561,-4,-2,0,0.126465,-0.619629,-0.762207,-0.244141,-0.122070,0.000000,21.01,0
346467033,26321.203875,1777992358.224459,255,-1266,-1560,-3,-1,0,0.124512,-0.618164,-0.761719,-0.183105,-0.061035,0.000000,21.03,0
346468044,26321.203884,1777992358.225469,253,-1265,-1558,-4,-1,-1,0.123535,-0.617676,-0.760742,-0.244141,-0.061035,-0.061035,20.98,0
346469058,26321.203890,1777992358.226481,255,-1265,-1562,-4,0,0,0.124512,-0.617676,-0.762695,-0.244141,0.000000,0.000000,21.07,0
346470070,26321.203897,1777992358.227492,256,-1264,-1566,-3,0,0,0.125000,-0.617188,-0.764648,-0.183105,0.000000,0.000000,21.01,0
346471082,26321.203904,1777992358.228503,258,-1263,-1562,-3,-1,0,0.125977,-0.616699,-0.762695,-0.183105,-0.061035,0.000000,21.00,0
346472104,26321.203910,1777992358.229524,256,-1264,-1562,-3,-2,-1,0.125000,-0.617188,-0.762695,-0.183105,-0.122070,-0.061035,21.21,0
346473109,26321.203917,1777992358.230528,255,-1265,-1562,-3,-2,-1,0.124512,-0.617676,-0.762695,-0.183105,-0.122070,-0.061035,21.01,1
346474119,26321.211946,1777992358.231536,256,-1264,-1555,-4,-1,-1,0.125000,-0.617188,-0.759277,-0.244141,-0.061035,-0.061035,21.01,0
346475132,26321.211962,1777992358.232548,255,-1264,-1556,-3,0,-1,0.124512,-0.617188,-0.759766,-0.183105,0.000000,-0.061035,21.11,0
346476143,26321.211972,1777992358.233557,256,-1266,-1563,-3,0,0,0.125000,-0.618164,-0.763184,-0.183105,0.000000,0.000000,21.12,0
346477154,26321.211982,1777992358.234567,259,-1267,-1562,-3,-1,0,0.126465,-0.618652,-0.762695,-0.183105,-0.061035,0.000000,21.00,0
346478167,26321.211993,1777992358.235579,259,-1268,-1559,-3,0,0,0.126465,-0.619141,-0.761230,-0.183105,0.000000,0.000000,21.12,0
346479179,26321.212009,1777992358.236590,257,-1267,-1560,-2,0,0,0.125488,-0.618652,-0.761719,-0.122070,0.000000,0.000000,21.20,0
346480193,26321.212019,1777992358.237603,257,-1263,-1560,-3,-1,1,0.125488,-0.616699,-0.761719,-0.183105,-0.061035,0.061035,21.07,0
346481205,26321.212029,1777992358.238613,257,-1263,-1557,-3,-2,0,0.125488,-0.616699,-0.760254,-0.183105,-0.122070,0.000000,21.04,0
346482216,26321.220027,1777992358.239623,257,-1266,-1554,-3,-1,-1,0.125488,-0.618164,-0.758789,-0.183105,-0.061035,-0.061035,20.95,0
346483228,26321.220045,1777992358.240634,258,-1266,-1558,-3,0,-1,0.125977,-0.618164,-0.760742,-0.183105,0.000000,-0.061035,21.01,0
346484241,26321.220055,1777992358.241645,257,-1265,-1561,-3,-1,0,0.125488,-0.617676,-0.762207,-0.183105,-0.061035,0.000000,21.07,1
346485253,26321.220066,1777992358.242656,254,-1263,-1559,-3,-2,0,0.124023,-0.616699,-0.761230,-0.183105,-0.122070,0.000000,21.14,0
346486266,26321.220076,1777992358.243668,256,-1264,-1562,-3,-1,0,0.125000,-0.617188,-0.762695,-0.183105,-0.061035,0.000000,21.04,0
346487276,26321.220086,1777992358.244676,259,-1267,-1565,-3,0,-1,0.126465,-0.618652,-0.764160,-0.183105,0.000000,-0.061035,21.11,0
346488290,26321.220096,1777992358.245689,260,-1266,-1565,-3,-1,-1,0.126953,-0.618164,-0.764160,-0.183105,-0.061035,-0.061035,21.03,0
346489303,26321.220106,1777992358.246701,257,-1265,-1561,-3,-2,-1,0.125488,-0.617676,-0.762207,-0.183105,-0.122070,-0.061035,21.03,0
346490313,26321.228115,1777992358.247710,256,-1265,-1559,-3,-3,0,0.125000,-0.617676,-0.761230,-0.183105,-0.183105,0.000000,21.07,0
346491326,26321.228156,1777992358.248722,258,-1263,-1558,-3,-2,0,0.125977,-0.616699,-0.760742,-0.183105,-0.122070,0.000000,20.98,0
346492339,26321.228167,1777992358.249733,258,-1262,-1557,-2,-1,-1,0.125977,-0.616211,-0.760254,-0.122070,-0.061035,-0.061035,21.17,0
346493352,26321.228178,1777992358.250745,258,-1265,-1562,-1,-1,-1,0.125977,-0.617676,-0.762695,-0.061035,-0.061035,-0.061035,20.98,0
346494364,26321.228188,1777992358.251756,260,-1266,-1564,-2,-2,0,0.126953,-0.618164,-0.763672,-0.122070,-0.122070,0.000000,20.94,0
346495377,26321.228198,1777992358.252768,257,-1266,-1560,-4,-2,1,0.125488,-0.618164,-0.761719,-0.244141,-0.122070,0.061035,21.03,1
346496388,26321.228209,1777992358.253778,254,-1266,-1558,-4,-1,0,0.124023,-0.618164,-0.760742,-0.244141,-0.061035,0.000000,21.17,0
346497399,26321.228219,1777992358.254787,250,-1265,-1556,-3,-2,0,0.122070,-0.617676,-0.759766,-0.183105,-0.122070,0.000000,21.07,0
346498411,26321.236249,1777992358.255798,254,-1264,-1557,-2,-1,0,0.124023,-0.617188,-0.760254,-0.122070,-0.061035,0.000000,21.06,0
346499425,26321.236272,1777992358.256811,259,-1263,-1560,-3,0,-1,0.126465,-0.616699,-0.761719,-0.183105,0.000000,-0.061035,21.06,0
346500438,26321.236285,1777992358.257823,256,-1262,-1561,-3,-1,-1,0.125000,-0.616211,-0.762207,-0.183105,-0.061035,-0.061035,21.20,0
346501448,26321.236295,1777992358.258831,255,-1263,-1560,-3,-2,-1,0.124512,-0.616699,-0.761719,-0.183105,-0.122070,-0.061035,21.21,0
346502461,26321.236305,1777992358.259843,257,-1265,-1562,-4,-2,-1,0.125488,-0.617676,-0.762695,-0.244141,-0.122070,-0.061035,21.07,0
346503474,26321.236315,1777992358.260855,255,-1267,-1562,-4,-1,-2,0.124512,-0.618652,-0.762695,-0.244141,-0.061035,-0.122070,21.09,0
346504487,26321.236325,1777992358.261867,255,-1271,-1562,-3,0,-1,0.124512,-0.620605,-0.762695,-0.183105,0.000000,-0.061035,21.04,0
346505498,26321.236335,1777992358.262877,258,-1268,-1563,-3,-1,-1,0.125977,-0.619141,-0.763184,-0.183105,-0.061035,-0.061035,21.12,0
346506511,26321.244338,1777992358.263888,258,-1262,-1561,-3,-1,0,0.125977,-0.616211,-0.762207,-0.183105,-0.061035,0.000000,20.98,1
346507524,26321.244357,1777992358.264900,254,-1265,-1561,-3,-1,0,0.124023,-0.617676,-0.762207,-0.183105,-0.061035,0.000000,21.12,0
346508534,26321.244364,1777992358.265909,255,-1269,-1565,-4,0,0,0.124512,-0.619629,-0.764160,-0.244141,0.000000,0.000000,21.04,0
346509546,26321.244371,1777992358.266920,258,-1269,-1566,-4,-1,1,0.125977,-0.619629,-0.764648,-0.244141,-0.061035,0.061035,21.23,0
346510561,26321.244377,1777992358.267933,256,-1268,-1563,-4,-1,1,0.125000,-0.619141,-0.763184,-0.244141,-0.061035,0.061035,21.11,0
346511572,26321.244384,1777992358.268943,255,-1267,-1561,-4,-1,0,0.124512,-0.618652,-0.762207,-0.244141,-0.061035,0.000000,21.11,0
346512583,26321.244390,1777992358.269953,258,-1266,-1557,-5,-1,0,0.125977,-0.618164,-0.760254,-0.305176,-0.061035,0.000000,21.15,0
346513596,26321.244460,1777992358.270965,258,-1267,-1556,-5,-1,-1,0.125977,-0.618652,-0.759766,-0.305176,-0.061035,-0.061035,21.23,0
346514609,26321.252416,1777992358.271976,256,-1265,-1560,-5,-1,-1,0.125000,-0.617676,-0.761719,-0.305176,-0.061035,-0.061035,21.11,0
346515621,26321.252433,1777992358.272987,256,-1261,-1561,-4,-2,-1,0.125000,-0.615723,-0.762207,-0.244141,-0.122070,-0.061035,21.11,0
346516633,26321.252444,1777992358.273998,256,-1264,-1560,-4,-3,-1,0.125000,-0.617188,-0.761719,-0.244141,-0.183105,-0.061035,21.00,0
346517646,26321.252454,1777992358.275009,258,-1268,-1559,-4,-3,0,0.125977,-0.619141,-0.761230,-0.244141,-0.183105,0.000000,21.14,1
346518658,26321.252465,1777992358.276020,260,-1267,-1556,-4,-1,0,0.126953,-0.618652,-0.759766,-0.244141,-0.061035,0.000000,21.17,0
346519669,26321.252475,1777992358.277029,257,-1266,-1556,-3,-1,-1,0.125488,-0.618164,-0.759766,-0.183105,-0.061035,-0.061035,21.06,0
346520683,26321.252485,1777992358.278042,254,-1265,-1559,-3,-2,-2,0.124023,-0.617676,-0.761230,-0.183105,-0.122070,-0.122070,21.04,0
346521695,26321.252495,1777992358.279053,256,-1265,-1561,-3,-1,-2,0.125000,-0.617676,-0.762207,-0.183105,-0.061035,-0.122070,20.98,0
346522707,26321.260532,1777992358.280064,256,-1262,-1560,-3,-1,-1,0.125000,-0.616211,-0.761719,-0.183105,-0.061035,-0.061035,21.03,0
346523719,26321.260569,1777992358.281074,256,-1259,-1561,-4,-1,0,0.125000,-0.614746,-0.762207,-0.244141,-0.061035,0.000000,21.01,0
346524730,26321.260580,1777992358.282084,258,-1263,-1563,-4,-1,-1,0.125977,-0.616699,-0.763184,-0.244141,-0.061035,-0.061035,21.14,0
346525744,26321.260589,1777992358.283097,258,-1265,-1559,-3,-1,-1,0.125977,-0.617676,-0.761230,-0.183105,-0.061035,-0.061035,21.03,0
346526756,26321.260598,1777992358.284108,256,-1264,-1558,-4,-1,0,0.125000,-0.617188,-0.760742,-0.244141,-0.061035,0.000000,21.01,0
346527769,26321.260606,1777992358.285120,255,-1262,-1560,-4,-2,1,0.124512,-0.616211,-0.761719,-0.244141,-0.122070,0.061035,21.01,0
346528779,26321.260614,1777992358.286128,258,-1265,-1559,-3,-2,-1,0.125977,-0.617676,-0.761230,-0.183105,-0.122070,-0.061035,20.88,1
346529791,26321.260623,1777992358.287139,256,-1269,-1559,-2,-2,-1,0.125000,-0.619629,-0.761230,-0.122070,-0.122070,-0.061035,21.09,0
346530804,26321.268614,1777992358.288152,255,-1268,-1560,-3,-2,-1,0.124512,-0.619141,-0.761719,-0.183105,-0.122070,-0.061035,21.01,0
346531818,26321.268628,1777992358.289165,259,-1265,-1559,-3,-1,-1,0.126465,-0.617676,-0.761230,-0.183105,-0.061035,-0.061035,21.03,0
346532830,26321.268635,1777992358.290176,258,-1263,-1560,-4,-1,-1,0.125977,-0.616699,-0.761719,-0.244141,-0.061035,-0.061035,21.09,0
346533843,26321.268642,1777992358.291188,257,-1265,-1559,-4,-1,-1,0.125488,-0.617676,-0.761230,-0.244141,-0.061035,-0.061035,21.03,0
346534852,26321.268648,1777992358.292196,257,-1265,-1557,-3,-2,0,0.125488,-0.617676,-0.760254,-0.183105,-0.122070,0.000000,21.14,0
346535865,26321.268655,1777992358.293207,255,-1264,-1556,-3,-1,0,0.124512,-0.617188,-0.759766,-0.183105,-0.061035,0.000000,21.15,0
346536877,26321.268662,1777992358.294218,256,-1265,-1557,-3,-1,-1,0.125000,-0.617676,-0.760254,-0.183105,-0.061035,-0.061035,21.04,0
346537892,26321.268668,1777992358.295232,259,-1266,-1559,-4,-1,-1,0.126465,-0.618164,-0.761230,-0.244141,-0.061035,-0.061035,21.09,0
346538902,26321.276754,1777992358.296241,258,-1265,-1563,-4,-2,0,0.125977,-0.617676,-0.763184,-0.244141,-0.122070,0.000000,20.98,0
346539915,26321.276768,1777992358.297251,257,-1268,-1564,-4,-2,0,0.125488,-0.619141,-0.763672,-0.244141,-0.122070,0.000000,20.98,1
346540927,26321.276776,1777992358.298262,259,-1269,-1565,-3,-1,-1,0.126465,-0.619629,-0.764160,-0.183105,-0.061035,-0.061035,21.04,0
346541940,26321.276783,1777992358.299274,260,-1267,-1566,-3,-1,-1,0.126953,-0.618652,-0.764648,-0.183105,-0.061035,-0.061035,21.04,0
346542951,26321.276790,1777992358.300284,260,-1265,-1561,-4,-2,-1,0.126953,-0.617676,-0.762207,-0.244141,-0.122070,-0.061035,21.07,0
346543962,26321.276796,1777992358.301294,257,-1264,-1557,-3,-2,-1,0.125488,-0.617188,-0.760254,-0.183105,-0.122070,-0.061035,21.26,0
346544975,26321.276803,1777992358.302305,254,-1265,-1557,-3,-2,-1,0.124023,-0.617676,-0.760254,-0.183105,-0.122070,-0.061035,21.00,0
346545989,26321.276809,1777992358.303318,255,-1268,-1561,-3,-3,-1,0.124512,-0.619141,-0.762207,-0.183105,-0.183105,-0.061035,21.12,0
346547001,26321.284825,1777992358.304329,255,-1267,-1562,-4,-2,0,0.124512,-0.618652,-0.762695,-0.244141,-0.122070,0.000000,21.06,0
346548012,26321.284864,1777992358.305339,256,-1263,-1556,-3,-1,0,0.125000,-0.616699,-0.759766,-0.183105,-0.061035,0.000000,20.92,0
346549025,26321.284873,1777992358.306350,256,-1262,-1555,-2,-2,-1,0.125000,-0.616211,-0.759277,-0.122070,-0.122070,-0.061035,20.94,0
346550038,26321.284882,1777992358.307362,257,-1265,-1558,-3,-2,-1,0.125488,-0.617676,-0.760742,-0.183105,-0.122070,-0.061035,21.00,0
346551050,26321.284891,1777992358.308373,258,-1269,-1559,-5,-1,-1,0.125977,-0.619629,-0.761230,-0.305176,-0.061035,-0.061035,21.03,1
346552062,26321.284899,1777992358.309384,255,-1270,-1561,-4,-1,-1,0.124512,-0.620117,-0.762207,-0.244141,-0.061035,-0.061035,21.04,0
346553075,26321.284908,1777992358.310396,254,-1268,-1564,-3,-1,0,0.124023,-0.619141,-0.763672,-0.183105,-0.061035,0.000000,21.17,0
346554087,26321.284917,1777992358.311407,257,-1267,-1562,-4,-2,1,0.125488,-0.618652,-0.762695,-0.244141,-0.122070,0.061035,21.14,0
346555106,26321.292904,1777992358.312425,255,-1268,-1555,-5,-3,0,0.124512,-0.619141,-0.759277,-0.305176,-0.183105,0.000000,21.03,0
346556112,26321.292918,1777992358.313429,253,-1268,-1551,-4,-3,-1,0.123535,-0.619141,-0.757324,-0.244141,-0.183105,-0.061035,21.01,0
346557124,26321.292926,1777992358.314440,255,-1265,-1557,-3,-2,0,0.124512,-0.617676,-0.760254,-0.183105,-0.122070,0.000000,21.12,0
346558135,26321.292932,1777992358.315450,256,-1262,-1564,-4,-1,1,0.125000,-0.616211,-0.763672,-0.244141,-0.061035,0.061035,21.01,0
346559146,26321.292939,1777992358.316460,256,-1267,-1562,-4,-1,1,0.125000,-0.618652,-0.762695,-0.244141,-0.061035,0.061035,21.09,0
346560160,26321.292946,1777992358.317473,257,-1271,-1560,-3,-1,-1,0.125488,-0.620605,-0.761719,-0.183105,-0.061035,-0.061035,21.12,0
346561171,26321.292952,1777992358.318482,258,-1270,-1561,-3,-1,-1,0.125977,-0.620117,-0.762207,-0.183105,-0.061035,-0.061035,21.07,0
346562183,26321.292959,1777992358.319493,259,-1266,-1559,-3,-1,0,0.126465,-0.618164,-0.761230,-0.183105,-0.061035,0.000000,21.07,1
346563197,26321.300977,1777992358.320507,260,-1266,-1558,-3,-1,0,0.126953,-0.618164,-0.760742,-0.183105,-0.061035,0.000000,21.07,0
346564208,26321.300994,1777992358.321517,261,-1266,-1560,-3,-1,-1,0.127441,-0.618164,-0.761719,-0.183105,-0.061035,-0.061035,21.07,0
346565222,26321.301005,1777992358.322530,256,-1264,-1561,-3,-1,-1,0.125000,-0.617188,-0.762207,-0.183105,-0.061035,-0.061035,21.01,0
346566233,26321.301013,1777992358.323540,256,-1267,-1560,-4,-1,-1,0.125000,-0.618652,-0.761719,-0.244141,-0.061035,-0.061035,21.06,0
346567246,26321.301019,1777992358.324552,261,-1268,-1561,-4,-1,0,0.127441,-0.619141,-0.762207,-0.244141,-0.061035,0.000000,21.11,0
346568258,26321.301026,1777992358.325562,260,-1266,-1561,-3,0,0,0.126953,-0.618164,-0.762207,-0.183105,0.000000,0.000000,20.98,0
346569269,26321.301032,1777992358.326572,257,-1267,-1560,-3,0,-1,0.125488,-0.618652,-0.761719,-0.183105,0.000000,-0.061035,21.17,0
346570283,26321.301039,1777992358.327585,257,-1267,-1559,-4,-1,-1,0.125488,-0.618652,-0.761230,-0.244141,-0.061035,-0.061035,21.17,0
346571296,26321.309108,1777992358.328597,258,-1266,-1558,-3,-1,-1,0.125977,-0.618164,-0.760742,-0.183105,-0.061035,-0.061035,20.97,0
346572307,26321.309142,1777992358.329607,258,-1266,-1558,-2,-1,-1,0.125977,-0.618164,-0.760742,-0.122070,-0.061035,-0.061035,21.18,0
346573319,26321.309153,1777992358.330618,259,-1264,-1557,-3,-1,0,0.126465,-0.617188,-0.760254,-0.183105,-0.061035,0.000000,21.11,1
346574333,26321.309163,1777992358.331630,258,-1264,-1561,-4,-1,0,0.125977,-0.617188,-0.762207,-0.244141,-0.061035,0.000000,21.04,0
346575344,26321.309172,1777992358.332640,255,-1264,-1563,-3,-1,-1,0.124512,-0.617188,-0.763184,-0.183105,-0.061035,-0.061035,21.00,0
346576357,26321.309231,1777992358.333652,258,-1265,-1559,-3,0,-1,0.125977,-0.617676,-0.761230,-0.183105,0.000000,-0.061035,20.98,0
346577368,26321.309240,1777992358.334662,260,-1266,-1555,-3,-1,0,0.126953,-0.618164,-0.759277,-0.183105,-0.061035,0.000000,21.15,0
346578380,26321.309249,1777992358.335673,257,-1267,-1556,-3,-2,0,0.125488,-0.618652,-0.759766,-0.183105,-0.122070,0.000000,20.92,0
346579392,26321.317196,1777992358.336683,257,-1266,-1560,-2,-2,0,0.125488,-0.618164,-0.761719,-0.122070,-0.122070,0.000000,21.24,0
346580406,26321.317217,1777992358.337696,259,-1265,-1563,-1,-1,0,0.126465,-0.617676,-0.763184,-0.061035,-0.061035,0.000000,21.23,0
346581416,26321.317224,1777992358.338705,261,-1264,-1561,-3,-2,0,0.127441,-0.617188,-0.762207,-0.183105,-0.122070,0.000000,21.06,0
346582428,26321.317232,1777992358.339716,259,-1264,-1560,-5,-3,-1,0.126465,-0.617188,-0.761719,-0.305176,-0.183105,-0.061035,21.04,0
346583443,26321.317239,1777992358.340729,256,-1268,-1561,-4,-2,-1,0.125000,-0.619141,-0.762207,-0.244141,-0.122070,-0.061035,21.07,0
346584455,26321.317245,1777992358.341740,254,-1268,-1563,-3,0,-1,0.124023,-0.619141,-0.763184,-0.183105,0.000000,-0.061035,21.11,1
346585467,26321.317252,1777992358.342751,256,-1263,-1563,-4,-1,-1,0.125000,-0.616699,-0.763184,-0.244141,-0.061035,-0.061035,21.03,0
346586478,26321.317259,1777992358.343761,256,-1264,-1563,-4,-2,-1,0.125000,-0.617188,-0.763184,-0.244141,-0.122070,-0.061035,21.01,0
346587491,26321.325277,1777992358.344772,253,-1270,-1563,-4,-2,0,0.123535,-0.620117,-0.763184,-0.244141,-0.122070,0.000000,21.14,0
346588503,26321.325290,1777992358.345783,253,-1271,-1564,-3,-2,-1,0.123535,-0.620605,-0.763672,-0.183105,-0.122070,-0.061035,21.06,0
346589514,26321.325297,1777992358.346793,256,-1267,-1561,-3,-2,-1,0.125000,-0.618652,-0.762207,-0.183105,-0.122070,-0.061035,21.07,0
346590526,26321.325304,1777992358.347804,257,-1264,-1555,-4,-2,-1,0.125488,-0.617188,-0.759277,-0.244141,-0.122070,-0.061035,21.23,0
346591540,26321.325311,1777992358.348816,256,-1264,-1557,-4,-2,-1,0.125000,-0.617188,-0.760254,-0.244141,-0.122070,-0.061035,21.27,0
346592551,26321.325317,1777992358.349826,256,-1267,-1561,-4,-1,-1,0.125000,-0.618652,-0.762207,-0.244141,-0.061035,-0.061035,20.98,0
346593564,26321.325324,1777992358.350838,253,-1270,-1560,-4,-1,0,0.123535,-0.620117,-0.761719,-0.244141,-0.061035,0.000000,21.03,0
346594578,26321.325330,1777992358.351851,255,-1267,-1557,-4,-1,0,0.124512,-0.618652,-0.760254,-0.244141,-0.061035,0.000000,21.07,0
346595589,26321.333506,1777992358.352860,257,-1266,-1558,-4,-1,0,0.125488,-0.618164,-0.760742,-0.244141,-0.061035,0.000000,20.98,1
346596600,26321.333518,1777992358.353870,256,-1267,-1561,-3,0,-1,0.125000,-0.618652,-0.762207,-0.183105,0.000000,-0.061035,21.06,0
346597613,26321.333524,1777992358.354882,255,-1266,-1561,-4,0,0,0.124512,-0.618164,-0.762207,-0.244141,0.000000,0.000000,21.09,0
346598624,26321.333531,1777992358.355892,254,-1266,-1561,-4,-1,0,0.124023,-0.618164,-0.762207,-0.244141,-0.061035,0.000000,20.88,0
346599639,26321.333556,1777992358.356905,255,-1267,-1563,-3,-1,-1,0.124512,-0.618652,-0.763184,-0.183105,-0.061035,-0.061035,21.07,0
346600650,26321.333563,1777992358.357915,258,-1264,-1564,-3,0,-1,0.125977,-0.617188,-0.763672,-0.183105,0.000000,-0.061035,21.04,0
346601662,26321.333570,1777992358.358926,258,-1260,-1562,-3,-1,0,0.125977,-0.615234,-0.762695,-0.183105,-0.061035,0.000000,21.06,0
346602675,26321.333576,1777992358.359938,258,-1264,-1558,-2,-2,0,0.125977,-0.617188,-0.760742,-0.122070,-0.122070,0.000000,21.07,0
346603685,26321.341534,1777992358.360947,255,-1269,-1556,-2,-1,0,0.124512,-0.619629,-0.759766,-0.122070,-0.061035,0.000000,21.11,0
346604698,26321.341564,1777992358.361959,252,-1270,-1560,-2,-1,0,0.123047,-0.620117,-0.761719,-0.122070,-0.061035,0.000000,21.06,0
346605712,26321.341573,1777992358.362971,258,-1267,-1566,-3,0,-1,0.125977,-0.618652,-0.764648,-0.183105,0.000000,-0.061035,21.01,0
346606724,26321.341582,1777992358.363982,259,-1262,-1567,-3,-1,0,0.126465,-0.616211,-0.765137,-0.183105,-0.061035,0.000000,20.95,1
346607736,26321.341593,1777992358.364993,258,-1263,-1562,-3,-1,0,0.125977,-0.616699,-0.762695,-0.183105,-0.061035,0.000000,21.11,0
346608747,26321.341602,1777992358.366003,259,-1266,-1560,-3,-1,-1,0.126465,-0.618164,-0.761719,-0.183105,-0.061035,-0.061035,21.09,0
346609761,26321.341611,1777992358.367016,257,-1268,-1563,-3,-1,-1,0.125488,-0.619141,-0.763184,-0.183105,-0.061035,-0.061035,21.00,0
346610773,26321.341620,1777992358.368026,256,-1268,-1561,-4,-3,-1,0.125000,-0.619141,-0.762207,-0.244141,-0.183105,-0.061035,21.23,0
346611786,26321.349595,1777992358.369038,258,-1266,-1558,-4,-3,-1,0.125977,-0.618164,-0.760742,-0.244141,-0.183105,-0.061035,21.11,0
346612798,26321.349605,1777992358.370049,260,-1267,-1559,-3,-2,-1,0.126953,-0.618652,-0.761230,-0.183105,-0.122070,-0.061035,21.17,0
346613808,26321.349612,1777992358.371058,259,-1269,-1561,-3,-1,-1,0.126465,-0.619629,-0.762207,-0.183105,-0.061035,-0.061035,21.04,0
346614820,26321.349618,1777992358.372069,256,-1268,-1558,-3,-1,-1,0.125000,-0.619141,-0.760742,-0.183105,-0.061035,-0.061035,21.01,0
346615833,26321.349625,1777992358.373080,256,-1268,-1560,-3,-2,-1,0.125000,-0.619141,-0.761719,-0.183105,-0.122070,-0.061035,21.01,0
346616846,26321.349632,1777992358.374092,256,-1268,-1564,-3,-2,0,0.125000,-0.619141,-0.763672,-0.183105,-0.122070,0.000000,21.01,0
346617857,26321.349639,1777992358.375102,256,-1268,-1562,-3,-2,-1,0.125000,-0.619141,-0.762695,-0.183105,-0.122070,-0.061035,20.94,1
346618871,26321.349646,1777992358.376115,258,-1267,-1559,-3,-2,-1,0.125977,-0.618652,-0.761230,-0.183105,-0.122070,-0.061035,21.14,0
346619883,26321.357716,1777992358.377125,257,-1265,-1561,-3,-2,-1,0.125488,-0.617676,-0.762207,-0.183105,-0.122070,-0.061035,21.09,0
346620894,26321.357733,1777992358.378135,255,-1267,-1562,-4,-1,0,0.124512,-0.618652,-0.762695,-0.244141,-0.061035,0.000000,21.14,0
346621908,26321.357741,1777992358.379148,254,-1268,-1560,-4,-2,0,0.124023,-0.619141,-0.761719,-0.244141,-0.122070,0.000000,20.97,0
346622921,26321.357748,1777992358.380160,251,-1265,-1559,-2,-1,0,0.122559,-0.617676,-0.761230,-0.122070,-0.061035,0.000000,21.03,0
346623933,26321.357754,1777992358.381170,253,-1266,-1558,-2,-1,0,0.123535,-0.618164,-0.760742,-0.122070,-0.061035,0.000000,21.01,0
346624944,26321.357761,1777992358.382180,258,-1268,-1556,-2,-1,-1,0.125977,-0.619141,-0.759766,-0.122070,-0.061035,-0.061035,21.04,0
346625956,26321.357767,1777992358.383191,254,-1264,-1560,-4,-2,-2,0.124023,-0.617188,-0.761719,-0.244141,-0.122070,-0.122070,21.01,0
346626969,26321.357774,1777992358.384203,255,-1263,-1562,-4,-2,-1,0.124512,-0.616699,-0.762695,-0.244141,-0.122070,-0.061035,21.07,0
346627982,26321.365794,1777992358.385215,259,-1268,-1558,-3,-2,-1,0.126465,-0.619141,-0.760742,-0.183105,-0.122070,-0.061035,21.36,0
346628993,26321.365810,1777992358.386224,257,-1270,-1558,-3,-2,-1,0.125488,-0.620117,-0.760742,-0.183105,-0.122070,-0.061035,20.89,1
346630006,26321.365820,1777992358.387236,253,-1270,-1558,-3,-2,0,0.123535,-0.620117,-0.760742,-0.183105,-0.122070,0.000000,21.07,0
346631016,26321.365830,1777992358.388245,255,-1266,-1557,-4,-1,-1,0.124512,-0.618164,-0.760254,-0.244141,-0.061035,-0.061035,20.98,0
346632030,26321.365841,1777992358.389258,261,-1265,-1557,-4,-1,-1,0.127441,-0.617676,-0.760254,-0.244141,-0.061035,-0.061035,21.06,0
346633043,26321.365851,1777992358.390270,260,-1266,-1559,-4,-1,-1,0.126953,-0.618164,-0.761230,-0.244141,-0.061035,-0.061035,21.12,0
346634055,26321.365860,1777992358.391280,255,-1266,-1559,-3,-2,-1,0.124512,-0.618164,-0.761230,-0.183105,-0.122070,-0.061035,21.14,0
346635067,26321.365870,1777992358.392291,255,-1267,-1557,-3,-2,0,0.124512,-0.618652,-0.760254,-0.183105,-0.122070,0.000000,21.03,0
346636079,26321.373915,1777992358.393302,256,-1268,-1558,-3,-2,0,0.125000,-0.619141,-0.760742,-0.183105,-0.122070,0.000000,21.12,0
346637091,26321.373931,1777992358.394313,255,-1266,-1559,-3,-2,-1,0.124512,-0.618164,-0.761230,-0.183105,-0.122070,-0.061035,21.11,0
346638115,26321.373942,1777992358.395335,258,-1263,-1560,-3,-1,0,0.125977,-0.616699,-0.761719,-0.183105,-0.061035,0.000000,21.11,0
346639116,26321.373989,1777992358.396335,261,-1266,-1561,-3,-1,-1,0.127441,-0.618164,-0.762207,-0.183105,-0.061035,-0.061035,21.06,0
346640127,26321.373998,1777992358.397345,260,-1268,-1561,-4,-2,-1,0.126953,-0.619141,-0.762207,-0.244141,-0.122070,-0.061035,21.24,1
346641140,26321.374032,1777992358.398357,258,-1268,-1561,-4,-1,-1,0.125977,-0.619141,-0.762207,-0.244141,-0.061035,-0.061035,20.92,0
346642152,26321.374042,1777992358.399368,255,-1267,-1561,-3,-1,0,0.124512,-0.618652,-0.762207,-0.183105,-0.061035,0.000000,21.04,0
346643166,26321.374052,1777992358.400381,253,-1263,-1561,-3,-2,0,0.123535,-0.616699,-0.762207,-0.183105,-0.122070,0.000000,20.88,0
346644176,26321.382000,1777992358.401389,256,-1264,-1560,-4,-2,-1,0.125000,-0.617188,-0.761719,-0.244141,-0.122070,-0.061035,21.01,0
346645190,26321.382015,1777992358.402402,259,-1266,-1560,-4,-1,-2,0.126465,-0.618164,-0.761719,-0.244141,-0.061035,-0.122070,21.06,0
346646201,26321.382022,1777992358.403412,258,-1265,-1561,-4,0,-2,0.125977,-0.617676,-0.762207,-0.244141,0.000000,-0.122070,21.12,0
346647213,26321.382029,1777992358.404423,258,-1266,-1560,-3,-1,-1,0.125977,-0.618164,-0.761719,-0.183105,-0.061035,-0.061035,21.07,0
346648227,26321.382036,1777992358.405436,258,-1266,-1557,-3,-1,-1,0.125977,-0.618164,-0.760254,-0.183105,-0.061035,-0.061035,21.15,0
346649238,26321.382043,1777992358.406446,255,-1266,-1559,-3,-1,-1,0.124512,-0.618164,-0.761230,-0.183105,-0.061035,-0.061035,20.97,0
346650250,26321.382049,1777992358.407456,256,-1265,-1562,-2,-1,0,0.125000,-0.617676,-0.762695,-0.122070,-0.061035,0.000000,21.07,0
346651262,26321.382056,1777992358.408467,260,-1264,-1559,-2,-1,1,0.126953,-0.617188,-0.761230,-0.122070,-0.061035,0.061035,20.86,1
346652276,26321.390095,1777992358.409480,261,-1263,-1558,-3,-1,1,0.127441,-0.616699,-0.760742,-0.183105,-0.061035,0.061035,21.12,0
346653287,26321.390106,1777992358.410490,257,-1263,-1560,-4,-1,0,0.125488,-0.616699,-0.761719,-0.244141,-0.061035,0.000000,21.03,0
346654300,26321.390113,1777992358.411501,259,-1265,-1563,-4,-2,0,0.126465,-0.617676,-0.763184,-0.244141,-0.122070,0.000000,20.97,0
346655312,26321.390120,1777992358.412512,261,-1265,-1562,-4,-3,0,0.127441,-0.617676,-0.762695,-0.244141,-0.183105,0.000000,21.14,0
346656325,26321.390127,1777992358.413524,257,-1267,-1560,-4,-3,0,0.125488,-0.618652,-0.761719,-0.244141,-0.183105,0.000000,20.91,0
346657335,26321.390133,1777992358.414533,254,-1267,-1559,-4,-1,-1,0.124023,-0.618652,-0.761230,-0.244141,-0.061035,-0.061035,21.01,0
346658347,26321.390140,1777992358.415544,255,-1265,-1558,-3,-1,-2,0.124512,-0.617676,-0.760742,-0.183105,-0.061035,-0.122070,21.14,0
346659361,26321.390146,1777992358.416556,257,-1266,-1557,-3,-1,-1,0.125488,-0.618164,-0.760254,-0.183105,-0.061035,-0.061035,21.20,0
346660373,26321.398194,1777992358.417567,257,-1265,-1558,-3,-2,0,0.125488,-0.617676,-0.760742,-0.183105,-0.122070,0.000000,21.12,0
346661385,26321.398220,1777992358.418578,254,-1265,-1559,-2,-2,0,0.124023,-0.617676,-0.761230,-0.122070,-0.122070,0.000000,20.95,0
346662397,26321.398231,1777992358.419589,255,-1268,-1559,-3,-2,-1,0.124512,-0.619141,-0.761230,-0.183105,-0.122070,-0.061035,21.07,1
346663409,26321.398243,1777992358.420600,256,-1266,-1560,-3,-2,-2,0.125000,-0.618164,-0.761719,-0.183105,-0.122070,-0.122070,21.00,0
346664422,26321.398253,1777992358.421612,257,-1264,-1560,-3,-1,-1,0.125488,-0.617188,-0.761719,-0.183105,-0.061035,-0.061035,21.11,0
346665435,26321.398266,1777992358.422624,258,-1265,-1562,-3,-1,-1,0.125977,-0.617676,-0.762695,-0.183105,-0.061035,-0.061035,21.20,0
346666448,26321.398277,1777992358.423635,257,-1265,-1562,-3,-1,-1,0.125488,-0.617676,-0.762695,-0.183105,-0.061035,-0.061035,21.01,0
346667459,26321.398288,1777992358.424645,255,-1267,-1560,-3,-1,-2,0.124512,-0.618652,-0.761719,-0.183105,-0.061035,-0.122070,21.20,0
346668472,26321.406270,1777992358.425657,256,-1268,-1562,-4,-1,-1,0.125000,-0.619141,-0.762695,-0.244141,-0.061035,-0.061035,21.07,0
346669484,26321.406280,1777992358.426668,259,-1266,-1566,-3,-1,-1,0.126465,-0.618164,-0.764648,-0.183105,-0.061035,-0.061035,21.06,0
346670494,26321.406287,1777992358.427676,258,-1265,-1565,-3,-2,-2,0.125977,-0.617676,-0.764160,-0.183105,-0.122070,-0.122070,21.09,0
346671506,26321.406294,1777992358.428687,258,-1267,-1562,-3,-2,-2,0.125977,-0.618652,-0.762695,-0.183105,-0.122070,-0.122070,21.18,0
346672521,26321.406300,1777992358.429701,258,-1267,-1560,-2,-2,-2,0.125977,-0.618652,-0.761719,-0.122070,-0.122070,-0.122070,21.26,0
346673533,26321.406307,1777992358.430712,257,-1265,-1558,-3,-3,-2,0.125488,-0.617676,-0.760742,-0.183105,-0.183105,-0.122070,21.15,1
346674543,26321.406315,1777992358.431721,255,-1263,-1557,-3,-3,-1,0.124512,-0.616699,-0.760254,-0.183105,-0.183105,-0.061035,20.97,0
346675555,26321.406322,1777992358.432731,253,-1266,-1557,-3,-1,0,0.123535,-0.618164,-0.760254,-0.183105,-0.061035,0.000000,21.30,0
346676570,26321.414386,1777992358.433745,255,-1267,-1559,-3,-1,0,0.124512,-0.618652,-0.761230,-0.183105,-0.061035,0.000000,21.20,0
346677581,26321.414399,1777992358.434755,257,-1267,-1562,-4,-1,0,0.125488,-0.618652,-0.762695,-0.244141,-0.061035,0.000000,21.04,0
346678592,26321.414406,1777992358.435765,256,-1269,-1561,-5,-1,0,0.125000,-0.619629,-0.762207,-0.305176,-0.061035,0.000000,21.11,0
346679604,26321.414413,1777992358.436776,257,-1269,-1561,-4,-1,-1,0.125488,-0.619629,-0.762207,-0.244141,-0.061035,-0.061035,21.03,0
346680619,26321.414420,1777992358.437789,255,-1268,-1563,-3,-2,-1,0.124512,-0.619141,-0.763184,-0.183105,-0.122070,-0.061035,21.24,0
346681631,26321.414426,1777992358.438800,253,-1266,-1564,-3,-2,-1,0.123535,-0.618164,-0.763672,-0.183105,-0.122070,-0.061035,21.11,0
346682643,26321.414433,1777992358.439811,253,-1263,-1564,-3,-1,-1,0.123535,-0.616699,-0.763672,-0.183105,-0.061035,-0.061035,21.14,0
346683655,26321.414439,1777992358.440822,255,-1264,-1560,-2,-1,0,0.124512,-0.617188,-0.761719,-0.122070,-0.061035,0.000000,21.01,0
346684667,26321.422502,1777992358.441833,257,-1265,-1560,-3,-1,1,0.125488,-0.617676,-0.761719,-0.183105,-0.061035,0.061035,21.11,1
346685680,26321.422515,1777992358.442844,258,-1264,-1564,-4,-1,0,0.125977,-0.617188,-0.763672,-0.244141,-0.061035,0.000000,21.11,0
346686691,26321.422522,1777992358.443854,260,-1265,-1561,-3,-1,-1,0.126953,-0.617676,-0.762207,-0.183105,-0.061035,-0.061035,21.04,0
346687705,26321.422529,1777992358.444867,256,-1265,-1559,-3,-1,0,0.125000,-0.617676,-0.761230,-0.183105,-0.061035,0.000000,20.97,0
346688716,26321.422536,1777992358.445877,255,-1266,-1560,-4,-1,0,0.124512,-0.618164,-0.761719,-0.244141,-0.061035,0.000000,21.14,0
346689727,26321.422543,1777992358.446887,261,-1267,-1565,-3,-1,-1,0.127441,-0.618652,-0.764160,-0.183105,-0.061035,-0.061035,21.14,0
346690741,26321.422549,1777992358.447899,258,-1267,-1564,-3,-1,-1,0.125977,-0.618652,-0.763672,-0.183105,-0.061035,-0.061035,21.07,0
346691752,26321.422556,1777992358.448909,254,-1268,-1555,-3,-2,-1,0.124023,-0.619141,-0.759277,-0.183105,-0.122070,-0.061035,20.98,0
346692764,26321.430577,1777992358.449920,253,-1269,-1553,-4,-2,-1,0.123535,-0.619629,-0.758301,-0.244141,-0.122070,-0.061035,21.03,0
346693778,26321.430593,1777992358.450933,251,-1267,-1559,-3,-2,-1,0.122559,-0.618652,-0.761230,-0.183105,-0.122070,-0.061035,21.04,0
346694790,26321.430602,1777992358.451943,254,-1266,-1560,-3,-1,0,0.124023,-0.618164,-0.761719,-0.183105,-0.061035,0.000000,21.03,0
346695802,26321.430612,1777992358.452954,257,-1269,-1560,-4,-1,0,0.125488,-0.619629,-0.761719,-0.244141,-0.061035,0.000000,21.09,1
346696813,26321.430625,1777992358.453964,257,-1270,-1560,-4,-1,0,0.125488,-0.620117,-0.761719,-0.244141,-0.061035,0.000000,21.01,0
346697827,26321.430634,1777992358.454977,259,-1266,-1561,-3,-2,0,0.126465,-0.618164,-0.762207,-0.183105,-0.122070,0.000000,21.07,0
346698838,26321.430644,1777992358.455986,255,-1265,-1563,-2,-1,-1,0.124512,-0.617676,-0.763184,-0.122070,-0.061035,-0.061035,21.11,0
346699852,26321.430653,1777992358.456999,254,-1266,-1562,-3,-1,-1,0.124023,-0.618164,-0.762695,-0.183105,-0.061035,-0.061035,21.07,0
346700864,26321.438689,1777992358.458010,258,-1267,-1560,-4,-1,-2,0.125977,-0.618652,-0.761719,-0.244141,-0.061035,-0.122070,21.32,0
346701876,26321.438738,1777992358.459021,259,-1267,-1560,-3,-2,-1,0.126465,-0.618652,-0.761719,-0.183105,-0.122070,-0.061035,21.26,0
346702888,26321.438745,1777992358.460032,257,-1264,-1560,-3,-2,-1,0.125488,-0.617188,-0.761719,-0.183105,-0.122070,-0.061035,21.20,0
346703899,26321.438751,1777992358.461041,257,-1260,-1559,-4,-2,-1,0.125488,-0.615234,-0.761230,-0.244141,-0.122070,-0.061035,21.03,0
346704912,26321.438758,1777992358.462053,257,-1262,-1559,-4,-1,-1,0.125488,-0.616211,-0.761230,-0.244141,-0.061035,-0.061035,21.20,0
346705924,26321.438765,1777992358.463064,257,-1267,-1560,-3,-1,0,0.125488,-0.618652,-0.761719,-0.183105,-0.061035,0.000000,21.07,0
346706937,26321.438771,1777992358.464076,256,-1271,-1558,-3,-1,0,0.125000,-0.620605,-0.760742,-0.183105,-0.061035,0.000000,21.01,1
346707948,26321.438778,1777992358.465086,257,-1267,-1558,-4,-1,0,0.125488,-0.618652,-0.760742,-0.244141,-0.061035,0.000000,21.00,0
346708962,26321.446777,1777992358.466098,257,-1265,-1559,-4,-2,0,0.125488,-0.617676,-0.761230,-0.244141,-0.122070,0.000000,21.09,0
346709973,26321.446789,1777992358.467108,256,-1266,-1558,-3,-2,0,0.125000,-0.618164,-0.760742,-0.183105,-0.122070,0.000000,21.57,0
346710987,26321.446796,1777992358.468121,258,-1264,-1562,-3,-1,-1,0.125977,-0.617188,-0.762695,-0.183105,-0.061035,-0.061035,21.07,0
346711999,26321.446803,1777992358.469131,257,-1265,-1566,-3,-2,-2,0.125488,-0.617676,-0.764648,-0.183105,-0.122070,-0.122070,21.09,0
346713010,26321.446810,1777992358.470141,253,-1265,-1561,-2,-2,-1,0.123535,-0.617676,-0.762207,-0.122070,-0.122070,-0.061035,21.07,0
346714023,26321.446816,1777992358.471153,252,-1266,-1558,-3,-1,0,0.123047,-0.618164,-0.760742,-0.183105,-0.061035,0.000000,21.11,0
346715034,26321.446824,1777992358.472163,255,-1269,-1563,-5,-1,-1,0.124512,-0.619629,-0.763184,-0.305176,-0.061035,-0.061035,21.04,0
346716048,26321.446830,1777992358.473176,257,-1267,-1562,-4,-1,-2,0.125488,-0.618652,-0.762695,-0.244141,-0.061035,-0.122070,21.14,0
346717060,26321.454872,1777992358.474186,255,-1265,-1559,-4,-1,-2,0.124512,-0.617676,-0.761230,-0.244141,-0.061035,-0.122070,21.12,0
346718073,26321.454892,1777992358.475198,255,-1266,-1560,-5,-2,-1,0.124512,-0.618164,-0.761719,-0.305176,-0.122070,-0.061035,21.11,1
346719082,26321.454904,1777992358.476205,258,-1264,-1563,-4,-1,-1,0.125977,-0.617188,-0.763184,-0.244141,-0.061035,-0.061035,21.07,0
346720106,26321.454914,1777992358.477228,258,-1262,-1566,-4,-1,-1,0.125977,-0.616211,-0.764648,-0.244141,-0.061035,-0.061035,21.26,0
346721109,26321.454924,1777992358.478230,258,-1264,-1562,-4,-2,-2,0.125977,-0.617188,-0.762695,-0.244141,-0.122070,-0.122070,21.11,0
346722121,26321.454934,1777992358.479241,260,-1266,-1556,-4,-2,-1,0.126953,-0.618164,-0.759766,-0.244141,-0.122070,-0.061035,21.27,0
346723134,26321.454945,1777992358.480253,258,-1266,-1560,-4,-1,0,0.125977,-0.618164,-0.761719,-0.244141,-0.061035,0.000000,21.17,0
346724146,26321.454955,1777992358.481263,256,-1263,-1567,-4,-2,0,0.125000,-0.616699,-0.765137,-0.244141,-0.122070,0.000000,21.11,0
346725158,26321.463667,1777992358.482274,258,-1260,-1564,-3,-3,0,0.125977,-0.615234,-0.763672,-0.183105,-0.183105,0.000000,21.00,0
346726170,26321.463705,1777992358.483285,258,-1263,-1559,-4,-2,1,0.125977,-0.616699,-0.761230,-0.244141,-0.122070,0.061035,21.07,0
346727181,26321.463716,1777992358.484295,254,-1268,-1561,-4,-1,1,0.124023,-0.619141,-0.762207,-0.244141,-0.061035,0.061035,21.21,0
346728193,26321.463726,1777992358.485305,257,-1269,-1562,-4,-2,-1,0.125488,-0.619629,-0.762695,-0.244141,-0.122070,-0.061035,21.04,0
346729207,26321.463737,1777992358.486319,259,-1264,-1560,-3,-3,-1,0.126465,-0.617188,-0.761719,-0.183105,-0.183105,-0.061035,21.14,1
346730218,26321.463748,1777992358.487329,257,-1264,-1562,-4,-1,0,0.125488,-0.617188,-0.762695,-0.244141,-0.061035,0.000000,21.15,0
346731231,26321.463757,1777992358.488340,257,-1267,-1563,-4,0,1,0.125488,-0.618652,-0.763184,-0.244141,0.000000,0.061035,21.07,0
346732244,26321.463767,1777992358.489352,255,-1266,-1562,-3,-1,0,0.124512,-0.618164,-0.762695,-0.183105,-0.061035,0.000000,21.15,0
346733256,26321.471039,1777992358.490363,254,-1265,-1561,-3,-1,0,0.124023,-0.617676,-0.762207,-0.183105,-0.061035,0.000000,21.07,0
346734267,26321.471053,1777992358.491373,254,-1265,-1561,-5,-2,-1,0.124023,-0.617676,-0.762207,-0.305176,-0.122070,-0.061035,21.17,0
346735281,26321.471061,1777992358.492385,256,-1267,-1562,-4,-1,-1,0.125000,-0.618652,-0.762695,-0.244141,-0.061035,-0.061035,21.18,0
346736293,26321.471068,1777992358.493396,257,-1267,-1563,-2,0,-1,0.125488,-0.618652,-0.763184,-0.122070,0.000000,-0.061035,21.01,0
346737304,26321.471075,1777992358.494406,255,-1265,-1561,-2,-1,-1,0.124512,-0.617676,-0.762207,-0.122070,-0.061035,-0.061035,21.20,0
346738317,26321.471081,1777992358.495418,256,-1267,-1559,-3,-1,0,0.125000,-0.618652,-0.761230,-0.183105,-0.061035,0.000000,21.03,0
346739328,26321.471088,1777992358.496428,255,-1268,-1559,-3,-1,-1,0.124512,-0.619141,-0.761230,-0.183105,-0.061035,-0.061035,21.14,0
346740342,26321.471095,1777992358.497440,252,-1264,-1560,-2,-2,-1,0.123047,-0.617188,-0.761719,-0.122070,-0.122070,-0.061035,21.04,1
346741352,26321.479142,1777992358.498448,256,-1266,-1559,-2,-2,-1,0.125000,-0.618164,-0.761230,-0.122070,-0.122070,-0.061035,21.17,0
346742364,26321.479155,1777992358.499459,257,-1269,-1558,-3,-1,0,0.125488,-0.619629,-0.760742,-0.183105,-0.061035,0.000000,21.07,0
346743379,26321.479162,1777992358.500473,253,-1266,-1563,-4,-1,-1,0.123535,-0.618164,-0.763184,-0.244141,-0.061035,-0.061035,20.97,0
346744391,26321.479169,1777992358.501483,255,-1259,-1566,-4,-1,0,0.124512,-0.614746,-0.764648,-0.244141,-0.061035,0.000000,21.04,0
346745403,26321.479175,1777992358.502494,259,-1263,-1559,-4,-1,0,0.126465,-0.616699,-0.761230,-0.244141,-0.061035,0.000000,21.01,0
346746414,26321.479182,1777992358.503504,258,-1270,-1555,-4,-2,0,0.125977,-0.620117,-0.759277,-0.244141,-0.122070,0.000000,21.09,0
346747428,26321.479189,1777992358.504517,258,-1267,-1559,-4,-2,-1,0.125977,-0.618652,-0.761230,-0.244141,-0.122070,-0.061035,20.97,0
346748439,26321.479196,1777992358.505527,261,-1264,-1559,-5,-1,-1,0.127441,-0.617188,-0.761230,-0.305176,-0.061035,-0.061035,21.09,0
346749451,26321.487245,1777992358.506537,258,-1267,-1558,-4,-1,0,0.125977,-0.618652,-0.760742,-0.244141,-0.061035,0.000000,21.01,0
346750464,26321.487260,1777992358.507549,256,-1267,-1562,-4,-2,0,0.125000,-0.618652,-0.762695,-0.244141,-0.122070,0.000000,21.11,0
346751477,26321.487274,1777992358.508561,258,-1263,-1560,-4,-1,0,0.125977,-0.616699,-0.761719,-0.244141,-0.061035,0.000000,21.03,1
346752488,26321.487283,1777992358.509571,258,-1263,-1556,-5,-1,0,0.125977,-0.616699,-0.759766,-0.305176,-0.061035,0.000000,20.97,0
346753499,26321.487293,1777992358.510581,255,-1266,-1557,-4,-1,-1,0.124512,-0.618164,-0.760254,-0.244141,-0.061035,-0.061035,21.07,0
346754514,26321.487302,1777992358.511594,255,-1263,-1559,-3,-2,-1,0.124512,-0.616699,-0.761230,-0.183105,-0.122070,-0.061035,21.11,0
346755525,26321.487313,1777992358.512604,257,-1265,-1562,-3,-3,0,0.125488,-0.617676,-0.762695,-0.183105,-0.183105,0.000000,21.07,0
346756537,26321.487323,1777992358.513615,257,-1269,-1563,-4,-1,-1,0.125488,-0.619629,-0.763184,-0.244141,-0.061035,-0.061035,21.09,0
346757548,26321.495357,1777992358.514625,257,-1265,-1561,-5,-1,-1,0.125488,-0.617676,-0.762207,-0.305176,-0.061035,-0.061035,21.06,0
346758563,26321.495388,1777992358.515638,257,-1263,-1562,-4,-2,-1,0.125488,-0.616699,-0.762695,-0.244141,-0.122070,-0.061035,21.07,0
346759575,26321.495402,1777992358.516649,261,-1264,-1565,-3,-2,-1,0.127441,-0.617188,-0.764160,-0.183105,-0.122070,-0.061035,20.98,0
346760585,26321.495415,1777992358.517658,263,-1265,-1564,-3,-1,-1,0.128418,-0.617676,-0.763672,-0.183105,-0.061035,-0.061035,21.01,0
346761600,26321.495428,1777992358.518672,258,-1266,-1558,-3,-2,-1,0.125977,-0.618164,-0.760742,-0.183105,-0.122070,-0.061035,21.20,0
346762610,26321.495442,1777992358.519681,257,-1267,-1555,-5,-3,-1,0.125488,-0.618652,-0.759277,-0.305176,-0.183105,-0.061035,21.32,1
346763621,26321.495455,1777992358.520690,256,-1268,-1557,-5,-3,-1,0.125000,-0.619141,-0.760254,-0.305176,-0.183105,-0.061035,20.95,0
346764634,26321.495544,1777992358.521702,253,-1267,-1557,-3,-3,-1,0.123535,-0.618652,-0.760254,-0.183105,-0.183105,-0.061035,21.15,0
346765649,26321.503524,1777992358.522717,251,-1267,-1560,-3,-2,0,0.122559,-0.618652,-0.761719,-0.183105,-0.122070,0.000000,21.09,0
346766660,26321.503549,1777992358.523726,255,-1268,-1563,-3,-2,0,0.124512,-0.619141,-0.763184,-0.183105,-0.122070,0.000000,21.27,0
346767672,26321.503561,1777992358.524737,258,-1269,-1561,-4,-2,-1,0.125977,-0.619629,-0.762207,-0.244141,-0.122070,-0.061035,21.17,0
346768684,26321.503571,1777992358.525748,256,-1270,-1560,-4,-2,-1,0.125000,-0.620117,-0.761719,-0.244141,-0.122070,-0.061035,21.07,0
346769696,26321.503582,1777992358.526759,258,-1267,-1560,-3,-1,0,0.125977,-0.618652,-0.761719,-0.183105,-0.061035,0.000000,21.09,0
346770709,26321.503604,1777992358.527770,259,-1266,-1558,-3,-1,-1,0.126465,-0.618164,-0.760742,-0.183105,-0.061035,-0.061035,21.07,0
346771720,26321.503615,1777992358.528780,256,-1267,-1559,-4,-2,-1,0.125000,-0.618652,-0.761230,-0.244141,-0.122070,-0.061035,21.29,0
346772739,26321.503627,1777992358.529798,257,-1265,-1561,-4,-2,0,0.125488,-0.617676,-0.762207,-0.244141,-0.122070,0.000000,21.09,0
346773744,26321.511578,1777992358.530801,260,-1266,-1561,-3,-1,0,0.126953,-0.618164,-0.762207,-0.183105,-0.061035,0.000000,21.12,1
346774756,26321.511603,1777992358.531812,261,-1268,-1560,-2,-2,-1,0.127441,-0.619141,-0.761719,-0.122070,-0.122070,-0.061035,21.12,0
346775769,26321.511614,1777992358.532824,257,-1266,-1560,-3,-2,-1,0.125488,-0.618164,-0.761719,-0.183105,-0.122070,-0.061035,21.14,0
346776782,26321.511625,1777992358.533836,256,-1266,-1559,-4,-2,-1,0.125000,-0.618164,-0.761230,-0.244141,-0.122070,-0.061035,20.98,0
346777795,26321.511636,1777992358.534847,256,-1269,-1555,-3,-1,-1,0.125000,-0.619629,-0.759277,-0.183105,-0.061035,-0.061035,21.04,0
346778808,26321.511646,1777992358.535859,257,-1269,-1559,-3,-1,-1,0.125488,-0.619629,-0.761230,-0.183105,-0.061035,-0.061035,21.00,0
346779819,26321.511656,1777992358.536869,257,-1267,-1563,-4,-1,0,0.125488,-0.618652,-0.763184,-0.244141,-0.061035,0.000000,21.07,0
346780831,26321.511667,1777992358.537880,256,-1267,-1560,-3,-2,0,0.125000,-0.618652,-0.761719,-0.183105,-0.122070,0.000000,21.04,0
346781842,26321.519674,1777992358.538889,258,-1268,-1561,-2,-2,-1,0.125977,-0.619141,-0.762207,-0.122070,-0.122070,-0.061035,21.12,0
346782856,26321.519713,1777992358.539902,260,-1266,-1563,-2,-2,-2,0.126953,-0.618164,-0.763184,-0.122070,-0.122070,-0.122070,21.14,0
346783868,26321.519724,1777992358.540913,259,-1265,-1560,-3,-2,-1,0.126465,-0.617676,-0.761719,-0.183105,-0.122070,-0.061035,21.07,0
346784881,26321.519735,1777992358.541925,260,-1267,-1559,-3,-1,1,0.126953,-0.618652,-0.761230,-0.183105,-0.061035,0.061035,21.01,1
346785891,26321.519746,1777992358.542933,260,-1268,-1562,-3,-1,0,0.126953,-0.619141,-0.762695,-0.183105,-0.061035,0.000000,21.24,0
346786905,26321.519757,1777992358.543946,258,-1265,-1563,-3,-1,-1,0.125977,-0.617676,-0.763184,-0.183105,-0.061035,-0.061035,21.06,0
346787916,26321.519767,1777992358.544956,256,-1267,-1558,-4,-2,-1,0.125000,-0.618652,-0.760742,-0.244141,-0.122070,-0.061035,21.04,0
346788929,26321.519777,1777992358.545968,257,-1265,-1558,-4,-1,0,0.125488,-0.617676,-0.760742,-0.244141,-0.061035,0.000000,21.14,0
346789942,26321.527761,1777992358.546980,255,-1261,-1561,-4,-1,0,0.124512,-0.615723,-0.762207,-0.244141,-0.061035,0.000000,21.15,0
346790954,26321.527775,1777992358.547991,254,-1262,-1559,-4,-2,0,0.124023,-0.616211,-0.761230,-0.244141,-0.122070,0.000000,21.11,0
346791966,26321.527782,1777992358.549001,258,-1263,-1559,-3,-3,1,0.125977,-0.616699,-0.761230,-0.183105,-0.183105,0.061035,21.06,0
346792977,26321.527789,1777992358.550011,259,-1265,-1564,-3,-3,0,0.126465,-0.617676,-0.763672,-0.183105,-0.183105,0.000000,21.01,0
346793992,26321.527796,1777992358.551025,257,-1267,-1562,-4,-1,-2,0.125488,-0.618652,-0.762695,-0.244141,-0.061035,-0.122070,20.95,0
346795004,26321.527803,1777992358.552036,255,-1268,-1559,-4,-1,-1,0.124512,-0.619141,-0.761230,-0.244141,-0.061035,-0.061035,21.09,1
346796016,26321.527812,1777992358.553046,253,-1269,-1559,-4,-1,1,0.123535,-0.619629,-0.761230,-0.244141,-0.061035,0.061035,21.04,0
346797027,26321.527819,1777992358.554056,250,-1265,-1561,-5,-1,0,0.122070,-0.617676,-0.762207,-0.305176,-0.061035,0.000000,21.04,0
346798040,26321.535879,1777992358.555150,252,-1262,-1565,-4,-1,-1,0.123047,-0.616211,-0.764160,-0.244141,-0.061035,-0.061035,21.12,0
346799053,26321.535899,1777992358.556162,257,-1265,-1562,-3,-1,-1,0.125488,-0.617676,-0.762695,-0.183105,-0.061035,-0.061035,20.95,0
346800065,26321.535906,1777992358.557173,257,-1266,-1559,-3,-1,-1,0.125488,-0.618164,-0.761230,-0.183105,-0.061035,-0.061035,21.07,0
346801077,26321.535914,1777992358.558184,257,-1265,-1560,-3,-1,-1,0.125488,-0.617676,-0.761719,-0.183105,-0.061035,-0.061035,21.17,0
346802089,26321.535920,1777992358.559195,259,-1267,-1561,-3,-1,-2,0.126465,-0.618652,-0.762207,-0.183105,-0.061035,-0.122070,20.86,0
346803106,26321.535927,1777992358.560211,254,-1267,-1559,-2,-1,-1,0.124023,-0.618652,-0.761230,-0.122070,-0.061035,-0.061035,21.03,0
346804114,26321.535934,1777992358.561218,252,-1267,-1559,-2,0,0,0.123047,-0.618652,-0.761230,-0.122070,0.000000,0.000000,21.09,0
346805125,26321.535941,1777992358.562228,258,-1266,-1559,-2,0,0,0.125977,-0.618164,-0.761230,-0.122070,0.000000,0.000000,20.98,0
346806138,26321.543929,1777992358.563313,259,-1264,-1558,-3,0,-1,0.126465,-0.617188,-0.760742,-0.183105,0.000000,-0.061035,21.14,1
346807148,26321.543941,1777992358.564322,254,-1264,-1557,-4,-1,-1,0.124023,-0.617188,-0.760254,-0.244141,-0.061035,-0.061035,21.15,0
346808162,26321.543948,1777992358.565336,255,-1264,-1559,-3,-1,-1,0.124512,-0.617188,-0.761230,-0.183105,-0.061035,-0.061035,21.04,0
346809174,26321.543955,1777992358.566347,256,-1264,-1559,-3,-1,-1,0.125000,-0.617188,-0.761230,-0.183105,-0.061035,-0.061035,21.07,0
346810185,26321.543961,1777992358.567357,254,-1265,-1559,-3,-1,-1,0.124023,-0.617676,-0.761230,-0.183105,-0.061035,-0.061035,21.07,0
346811199,26321.543968,1777992358.568370,254,-1266,-1560,-3,-2,0,0.124023,-0.618164,-0.761719,-0.183105,-0.122070,0.000000,21.17,0
346812210,26321.543975,1777992358.569381,257,-1266,-1558,-4,-2,0,0.125488,-0.618164,-0.760742,-0.244141,-0.122070,0.000000,21.11,0
346813222,26321.543982,1777992358.570392,256,-1267,-1558,-4,-1,-1,0.125000,-0.618652,-0.760742,-0.244141,-0.061035,-0.061035,21.11,0
346814236,26321.552031,1777992358.571405,255,-1268,-1561,-3,-1,-1,0.124512,-0.619141,-0.762207,-0.183105,-0.061035,-0.061035,21.04,0
346815248,26321.552045,1777992358.572416,258,-1268,-1561,-3,-2,-1,0.125977,-0.619141,-0.762207,-0.183105,-0.122070,-0.061035,21.00,0
346816261,26321.552052,1777992358.573429,256,-1264,-1561,-3,-2,0,0.125000,-0.617188,-0.762207,-0.183105,-0.122070,0.000000,21.07,0
346817273,26321.552059,1777992358.574504,250,-1265,-1561,-3,-1,-1,0.122070,-0.617676,-0.762207,-0.183105,-0.061035,-0.061035,21.14,1
346818285,26321.552067,1777992358.575516,252,-1266,-1561,-3,-2,-1,0.123047,-0.618164,-0.762207,-0.183105,-0.122070,-0.061035,21.07,0
346819297,26321.552074,1777992358.576527,258,-1263,-1561,-3,-2,-1,0.125977,-0.616699,-0.762207,-0.183105,-0.122070,-0.061035,21.01,0
346820308,26321.552081,1777992358.577538,255,-1263,-1564,-3,-2,-1,0.124512,-0.616699,-0.763672,-0.183105,-0.122070,-0.061035,21.11,0
346821320,26321.552088,1777992358.578549,254,-1267,-1564,-1,-2,-1,0.124023,-0.618652,-0.763672,-0.061035,-0.122070,-0.061035,21.14,0
346822335,26321.560155,1777992358.579563,258,-1268,-1560,-1,-2,0,0.125977,-0.619141,-0.761719,-0.061035,-0.122070,0.000000,21.14,0
346823346,26321.560175,1777992358.580574,256,-1264,-1560,-2,-1,0,0.125000,-0.617188,-0.761719,-0.122070,-0.061035,0.000000,21.11,0
346824358,26321.560182,1777992358.581585,253,-1263,-1562,-3,-1,-1,0.123535,-0.616699,-0.762695,-0.183105,-0.061035,-0.061035,21.15,0
346825371,26321.560189,1777992358.582598,254,-1267,-1563,-4,-1,-1,0.124023,-0.618652,-0.763184,-0.244141,-0.061035,-0.061035,21.14,0
346826383,26321.560196,1777992358.583609,253,-1267,-1560,-4,-1,-2,0.123535,-0.618652,-0.761719,-0.244141,-0.061035,-0.122070,20.98,0
346827395,26321.560231,1777992358.584620,252,-1265,-1559,-4,-1,-1,0.123047,-0.617676,-0.761230,-0.244141,-0.061035,-0.061035,21.17,0
346828407,26321.560238,1777992358.585632,256,-1264,-1560,-4,-1,0,0.125000,-0.617188,-0.761719,-0.244141,-0.061035,0.000000,21.11,1
346829420,26321.560245,1777992358.586644,257,-1265,-1564,-4,-2,0,0.125488,-0.617676,-0.763672,-0.244141,-0.122070,0.000000,21.12,0
346830430,26321.568235,1777992358.587713,253,-1267,-1565,-4,-2,-1,0.123535,-0.618652,-0.764160,-0.244141,-0.122070,-0.061035,21.06,0
346831443,26321.568249,1777992358.588725,256,-1269,-1561,-4,-2,-1,0.125000,-0.619629,-0.762207,-0.244141,-0.122070,-0.061035,21.14,0
346832456,26321.568257,1777992358.589738,258,-1268,-1560,-4,-2,-1,0.125977,-0.619141,-0.761719,-0.244141,-0.122070,-0.061035,21.06,0
346833469,26321.568263,1777992358.590750,257,-1264,-1561,-2,-2,-1,0.125488,-0.617188,-0.762207,-0.122070,-0.122070,-0.061035,20.91,0
346834482,26321.568270,1777992358.591763,258,-1265,-1560,-2,0,0,0.125977,-0.617676,-0.761719,-0.122070,0.000000,0.000000,21.06,0
346835493,26321.568277,1777992358.592773,260,-1269,-1560,-4,0,0,0.126953,-0.619629,-0.761719,-0.244141,0.000000,0.000000,21.07,0
346836506,26321.568284,1777992358.593786,257,-1268,-1559,-5,-1,0,0.125488,-0.619141,-0.761230,-0.305176,-0.061035,0.000000,20.98,0
346837516,26321.568291,1777992358.594796,255,-1266,-1560,-4,-1,0,0.124512,-0.618164,-0.761719,-0.244141,-0.061035,0.000000,21.06,0
346838529,26321.576328,1777992358.595808,256,-1268,-1560,-4,-1,0,0.125000,-0.619141,-0.761719,-0.244141,-0.061035,0.000000,21.00,0
346839542,26321.576345,1777992358.596874,258,-1270,-1557,-3,-1,0,0.125977,-0.620117,-0.760254,-0.183105,-0.061035,0.000000,21.00,1
346840553,26321.576355,1777992358.597884,258,-1267,-1558,-3,-1,0,0.125977,-0.618652,-0.760742,-0.183105,-0.061035,0.000000,21.07,0
346841568,26321.576366,1777992358.598899,257,-1264,-1562,-3,0,0,0.125488,-0.617188,-0.762695,-0.183105,0.000000,0.000000,21.20,0
346842577,26321.576376,1777992358.599908,254,-1264,-1560,-3,-1,-1,0.124023,-0.617188,-0.761719,-0.183105,-0.061035,-0.061035,21.03,0
346843590,26321.576386,1777992358.600920,254,-1264,-1559,-3,-1,-1,0.124023,-0.617188,-0.761230,-0.183105,-0.061035,-0.061035,20.95,0
346844604,26321.576396,1777992358.601934,256,-1265,-1561,-3,-1,-1,0.125000,-0.617676,-0.762207,-0.183105,-0.061035,-0.061035,21.04,0
346845615,26321.576406,1777992358.602945,256,-1266,-1561,-3,-1,-1,0.125000,-0.618164,-0.762207,-0.183105,-0.061035,-0.061035,21.17,0
346846628,26321.584534,1777992358.603958,253,-1265,-1562,-3,-1,-1,0.123535,-0.617676,-0.762695,-0.183105,-0.061035,-0.061035,21.17,0
346847639,26321.584555,1777992358.604968,254,-1265,-1564,-3,-1,0,0.124023,-0.617676,-0.763672,-0.183105,-0.061035,0.000000,21.27,0
346848651,26321.584563,1777992358.605980,257,-1264,-1561,-4,-1,-1,0.125488,-0.617188,-0.762207,-0.244141,-0.061035,-0.061035,21.04,0
346849663,26321.584571,1777992358.606992,255,-1262,-1565,-5,-2,-2,0.124512,-0.616211,-0.764160,-0.305176,-0.122070,-0.122070,21.15,0
346850676,26321.584578,1777992358.608005,252,-1265,-1568,-5,-2,-1,0.123047,-0.617676,-0.765625,-0.305176,-0.122070,-0.061035,21.06,1
346851689,26321.584589,1777992358.609017,255,-1265,-1561,-3,-1,0,0.124512,-0.617676,-0.762207,-0.183105,-0.061035,0.000000,21.04,0
346852700,26321.584599,1777992358.610028,262,-1263,-1559,-3,-1,0,0.127930,-0.616699,-0.761230,-0.183105,-0.061035,0.000000,21.03,0
346853715,26321.584612,1777992358.611042,262,-1265,-1562,-4,-1,0,0.127930,-0.617676,-0.762695,-0.244141,-0.061035,0.000000,21.01,0
346854725,26321.592510,1777992358.612100,259,-1265,-1561,-4,-1,-1,0.126465,-0.617676,-0.762207,-0.244141,-0.061035,-0.061035,21.12,0
346855739,26321.592527,1777992358.613114,259,-1266,-1559,-4,-2,0,0.126465,-0.618164,-0.761230,-0.244141,-0.122070,0.000000,21.11,0
346856749,26321.592538,1777992358.614124,259,-1266,-1564,-4,-2,0,0.126465,-0.618164,-0.763672,-0.244141,-0.122070,0.000000,21.12,0
346857763,26321.592549,1777992358.615137,259,-1266,-1567,-3,-2,-1,0.126465,-0.618164,-0.765137,-0.183105,-0.122070,-0.061035,21.14,0
346858776,26321.592559,1777992358.616150,258,-1266,-1562,-4,-1,-1,0.125977,-0.618164,-0.762695,-0.244141,-0.061035,-0.061035,21.07,0
346859788,26321.592570,1777992358.617162,255,-1264,-1562,-4,-1,-1,0.124512,-0.617188,-0.762695,-0.244141,-0.061035,-0.061035,21.07,0
346860799,26321.592580,1777992358.618173,254,-1264,-1559,-4,-1,0,0.124023,-0.617188,-0.761230,-0.244141,-0.061035,0.000000,21.01,0
346861810,26321.592590,1777992358.619184,258,-1266,-1555,-3,-1,0,0.125977,-0.618164,-0.759277,-0.183105,-0.061035,0.000000,21.07,1
346862825,26321.600627,1777992358.620241,258,-1267,-1558,-2,-1,-1,0.125977,-0.618652,-0.760742,-0.122070,-0.061035,-0.061035,21.09,0
346863837,26321.600650,1777992358.621253,254,-1266,-1561,-1,-2,-1,0.124023,-0.618164,-0.762207,-0.061035,-0.122070,-0.061035,21.09,0
346864848,26321.600663,1777992358.622264,253,-1263,-1558,-2,-1,-1,0.123535,-0.616699,-0.760742,-0.122070,-0.061035,-0.061035,21.15,0
346865859,26321.600675,1777992358.623275,256,-1262,-1558,-3,-1,-1,0.125000,-0.616211,-0.760742,-0.183105,-0.061035,-0.061035,21.11,0
346866872,26321.600686,1777992358.624288,257,-1264,-1564,-4,-2,0,0.125488,-0.617188,-0.763672,-0.244141,-0.122070,0.000000,21.23,0
346867886,26321.600697,1777992358.625302,257,-1265,-1563,-3,-1,0,0.125488,-0.617676,-0.763184,-0.183105,-0.061035,0.000000,21.12,0
346868897,26321.600709,1777992358.626312,258,-1265,-1559,-2,0,-1,0.125977,-0.617676,-0.761230,-0.122070,0.000000,-0.061035,21.12,0
346869909,26321.600719,1777992358.627324,258,-1269,-1560,-3,-1,-1,0.125977,-0.619629,-0.761719,-0.183105,-0.061035,-0.061035,21.17,0
346870920,26321.609058,1777992358.628335,258,-1269,-1561,-2,-2,-1,0.125977,-0.619629,-0.762207,-0.122070,-0.122070,-0.061035,21.07,0
346871934,26321.609078,1777992358.629349,257,-1264,-1562,-2,-2,-1,0.125488,-0.617188,-0.762695,-0.122070,-0.122070,-0.061035,21.11,0
346872946,26321.609089,1777992358.630399,258,-1261,-1560,-3,-1,0,0.125977,-0.615723,-0.761719,-0.183105,-0.061035,0.000000,21.09,1
346873958,26321.609100,1777992358.631411,258,-1261,-1559,-3,0,0,0.125977,-0.615723,-0.761230,-0.183105,0.000000,0.000000,21.07,0
346874971,26321.609110,1777992358.632424,257,-1265,-1560,-3,-1,0,0.125488,-0.617676,-0.761719,-0.183105,-0.061035,0.000000,21.23,0
346875983,26321.609120,1777992358.633436,258,-1268,-1560,-3,-3,-1,0.125977,-0.619141,-0.761719,-0.183105,-0.183105,-0.061035,20.94,0
346876995,26321.609135,1777992358.634448,261,-1266,-1559,-3,-2,0,0.127441,-0.618164,-0.761230,-0.183105,-0.122070,0.000000,21.06,0
346878008,26321.609145,1777992358.635461,259,-1267,-1561,-2,-1,0,0.126465,-0.618652,-0.762207,-0.122070,-0.061035,0.000000,21.07,0
346879021,26321.616836,1777992358.636474,255,-1270,-1563,-2,-1,0,0.124512,-0.620117,-0.763184,-0.122070,-0.061035,0.000000,21.26,0
346880033,26321.616851,1777992358.637486,259,-1266,-1562,-2,-2,-1,0.126465,-0.618164,-0.762695,-0.122070,-0.122070,-0.061035,21.18,0
346881046,26321.616859,1777992358.638499,259,-1263,-1562,-2,-2,-1,0.126465,-0.616699,-0.762695,-0.122070,-0.122070,-0.061035,21.04,0
346882057,26321.616866,1777992358.639510,255,-1265,-1562,-3,-2,0,0.124512,-0.617676,-0.762695,-0.183105,-0.122070,0.000000,21.11,0
346883068,26321.616873,1777992358.640521,255,-1266,-1565,-4,-2,0,0.124512,-0.618164,-0.764160,-0.244141,-0.122070,0.000000,21.04,0
346884080,26321.616880,1777992358.641533,254,-1267,-1562,-3,-2,0,0.124023,-0.618652,-0.762695,-0.183105,-0.122070,0.000000,21.06,1
346885104,26321.616888,1777992358.642557,255,-1270,-1557,-3,-2,1,0.124512,-0.620117,-0.760254,-0.183105,-0.122070,0.061035,21.07,0
346886109,26321.616894,1777992358.643562,259,-1270,-1559,-3,-2,1,0.126465,-0.620117,-0.761230,-0.183105,-0.122070,0.061035,21.11,0
346887118,26321.624943,1777992358.644605,261,-1265,-1563,-2,-2,0,0.127441,-0.617676,-0.763184,-0.122070,-0.122070,0.000000,21.18,0
346888129,26321.624960,1777992358.645616,258,-1262,-1563,-2,-2,-1,0.125977,-0.616211,-0.763184,-0.122070,-0.122070,-0.061035,21.14,0
346889142,26321.624967,1777992358.646629,258,-1264,-1562,-3,-2,0,0.125977,-0.617188,-0.762695,-0.183105,-0.122070,0.000000,21.06,0
346890155,26321.624974,1777992358.647642,260,-1266,-1562,-3,-2,0,0.126953,-0.618164,-0.762695,-0.183105,-0.122070,0.000000,21.12,0
346891167,26321.625031,1777992358.648654,258,-1264,-1562,-3,-2,1,0.125977,-0.617188,-0.762695,-0.183105,-0.122070,0.061035,21.15,0
346892179,26321.625038,1777992358.649666,256,-1263,-1560,-3,-1,-1,0.125000,-0.616699,-0.761719,-0.183105,-0.061035,-0.061035,21.11,0
346893191,26321.625045,1777992358.650678,257,-1267,-1563,-3,0,-1,0.125488,-0.618652,-0.763184,-0.183105,0.000000,-0.061035,21.03,0
346894205,26321.625052,1777992358.651692,255,-1268,-1565,-3,-1,0,0.124512,-0.619141,-0.764160,-0.183105,-0.061035,0.000000,21.06,0
346895217,26321.633021,1777992358.652734,254,-1266,-1560,-1,-1,0,0.124023,-0.618164,-0.761719,-0.061035,-0.061035,0.000000,21.01,1
346896229,26321.633037,1777992358.653746,258,-1267,-1556,-2,-1,1,0.125977,-0.618652,-0.759766,-0.122070,-0.061035,0.061035,21.01,0
346897240,26321.633047,1777992358.654757,257,-1270,-1559,-3,-2,1,0.125488,-0.620117,-0.761230,-0.183105,-0.122070,0.061035,21.07,0
346898252,26321.633057,1777992358.655770,257,-1271,-1563,-2,-2,1,0.125488,-0.620605,-0.763184,-0.122070,-0.122070,0.061035,21.01,0
346899266,26321.633068,1777992358.656784,257,-1270,-1561,-1,-2,1,0.125488,-0.620117,-0.762207,-0.061035,-0.122070,0.061035,21.11,0
346900277,26321.633078,1777992358.657795,256,-1270,-1561,-1,-3,2,0.125000,-0.620117,-0.762207,-0.061035,-0.183105,0.122070,21.14,0
346901289,26321.633088,1777992358.658807,258,-1267,-1563,-1,-3,2,0.125977,-0.618652,-0.763184,-0.061035,-0.183105,0.122070,21.09,0
346902303,26321.633098,1777992358.659821,260,-1264,-1563,-1,-3,2,0.126953,-0.617188,-0.763184,-0.061035,-0.183105,0.122070,21.04,0
346903314,26321.641137,1777992358.660832,259,-1264,-1559,-1,-3,2,0.126465,-0.617188,-0.761230,-0.061035,-0.183105,0.122070,21.09,0
346904325,26321.641149,1777992358.661844,258,-1265,-1557,-2,-3,1,0.125977,-0.617676,-0.760254,-0.122070,-0.183105,0.061035,21.06,0
346905338,26321.641159,1777992358.662857,257,-1267,-1560,-2,-2,1,0.125488,-0.618652,-0.761719,-0.122070,-0.122070,0.061035,21.01,0
346906351,26321.641169,1777992358.663896,256,-1265,-1561,-1,-2,0,0.125000,-0.617676,-0.762207,-0.061035,-0.122070,0.000000,21.04,1
346907364,26321.641179,1777992358.664910,257,-1262,-1558,-1,-2,1,0.125488,-0.616211,-0.760742,-0.061035,-0.122070,0.061035,21.03,0
346908374,26321.641190,1777992358.665920,258,-1265,-1558,-1,-2,1,0.125977,-0.617676,-0.760742,-0.061035,-0.122070,0.061035,21.24,0
346909386,26321.641200,1777992358.666932,259,-1269,-1563,-1,-2,2,0.126465,-0.619629,-0.763184,-0.061035,-0.122070,0.122070,21.14,0
346910401,26321.641211,1777992358.667947,260,-1268,-1568,-1,-2,2,0.126953,-0.619141,-0.765625,-0.061035,-0.122070,0.122070,21.14,0
346911411,26321.649199,1777992358.668958,258,-1266,-1565,-2,-3,2,0.125977,-0.618164,-0.764160,-0.122070,-0.183105,0.122070,21.17,0
346912423,26321.649210,1777992358.669970,255,-1267,-1560,-1,-3,2,0.124512,-0.618652,-0.761719,-0.061035,-0.183105,0.122070,21.15,0
346913437,26321.649218,1777992358.670984,256,-1268,-1562,-1,-3,2,0.125000,-0.619141,-0.762695,-0.061035,-0.183105,0.122070,21.04,0
346914448,26321.649225,1777992358.671995,257,-1265,-1563,-1,-2,1,0.125488,-0.617676,-0.763184,-0.061035,-0.122070,0.061035,21.11,0
346915461,26321.649232,1777992358.673009,259,-1263,-1559,-1,-3,1,0.126465,-0.616699,-0.761230,-0.061035,-0.183105,0.061035,21.06,0
346916472,26321.649239,1777992358.674020,259,-1265,-1563,-1,-4,2,0.126465,-0.617676,-0.763184,-0.061035,-0.244141,0.122070,21.04,0
346917487,26321.649245,1777992358.675035,256,-1266,-1567,-1,-4,2,0.125000,-0.618164,-0.765137,-0.061035,-0.244141,0.122070,21.20,1
346918499,26321.649252,1777992358.676047,258,-1267,-1562,-1,-3,2,0.125977,-0.618652,-0.762695,-0.061035,-0.183105,0.122070,21.35,0
346919510,26321.657302,1777992358.677082,260,-1268,-1560,0,-4,1,0.126953,-0.619141,-0.761719,0.000000,-0.244141,0.061035,21.21,0
346920523,26321.657313,1777992358.678095,257,-1265,-1560,0,-4,2,0.125488,-0.617676,-0.761719,0.000000,-0.244141,0.122070,21.07,0
346921535,26321.657320,1777992358.679107,258,-1261,-1558,0,-4,2,0.125977,-0.615723,-0.760742,0.000000,-0.244141,0.122070,21.07,0
346922548,26321.657327,1777992358.680120,262,-1267,-1562,0,-4,2,0.127930,-0.618652,-0.762695,0.000000,-0.244141,0.122070,21.14,0
346923560,26321.657334,1777992358.681133,263,-1273,-1562,0,-4,2,0.128418,-0.621582,-0.762695,0.000000,-0.244141,0.122070,21.06,0
346924572,26321.657341,1777992358.682145,261,-1269,-1561,0,-5,2,0.127441,-0.619629,-0.762207,0.000000,-0.305176,0.122070,21.23,0
346925584,26321.657348,1777992358.683157,256,-1266,-1562,0,-5,3,0.125000,-0.618164,-0.762695,0.000000,-0.305176,0.183105,21.11,0
346926595,26321.657355,1777992358.684169,259,-1267,-1564,1,-5,3,0.126465,-0.618652,-0.763672,0.061035,-0.305176,0.183105,21.07,0
346927607,26321.665403,1777992358.685181,262,-1266,-1566,1,-5,4,0.127930,-0.618164,-0.764648,0.061035,-0.305176,0.244141,21.14,0
346928619,26321.665417,1777992358.686214,261,-1267,-1565,1,-4,4,0.127441,-0.618652,-0.764160,0.061035,-0.244141,0.244141,21.11,1
346929634,26321.665428,1777992358.687229,259,-1268,-1565,1,-4,4,0.126465,-0.619141,-0.764160,0.061035,-0.244141,0.244141,21.18,0
346930646,26321.665439,1777992358.688241,257,-1267,-1563,1,-4,4,0.125488,-0.618652,-0.763184,0.061035,-0.244141,0.244141,21.07,0
346931657,26321.665449,1777992358.689253,257,-1268,-1561,0,-4,4,0.125488,-0.619141,-0.762207,0.000000,-0.244141,0.244141,21.00,0
346932668,26321.665460,1777992358.690264,259,-1266,-1561,0,-4,3,0.126465,-0.618164,-0.762207,0.000000,-0.244141,0.183105,21.21,0
346933683,26321.665470,1777992358.691279,258,-1265,-1559,1,-3,3,0.125977,-0.617676,-0.761230,0.061035,-0.183105,0.183105,21.09,0
346934694,26321.665481,1777992358.692291,259,-1270,-1559,2,-4,3,0.126465,-0.620117,-0.761230,0.122070,-0.244141,0.183105,21.41,0
346935707,26321.673521,1777992358.693304,260,-1271,-1562,1,-6,4,0.126953,-0.620605,-0.762695,0.061035,-0.366211,0.244141,21.07,0
346936718,26321.673533,1777992358.694315,261,-1267,-1563,1,-6,4,0.127441,-0.618652,-0.763184,0.061035,-0.366211,0.244141,21.09,0
346937732,26321.673540,1777992358.695330,257,-1269,-1560,3,-6,4,0.125488,-0.619629,-0.761719,0.183105,-0.366211,0.244141,21.03,0
346938744,26321.673547,1777992358.696342,254,-1271,-1560,4,-6,3,0.124023,-0.620605,-0.761719,0.244141,-0.366211,0.183105,21.09,0
346939756,26321.673554,1777992358.697355,257,-1269,-1565,3,-5,3,0.125488,-0.619629,-0.764160,0.183105,-0.305176,0.183105,21.07,1
346940766,26321.673562,1777992358.698365,258,-1267,-1565,3,-5,4,0.125977,-0.618652,-0.764160,0.183105,-0.305176,0.244141,20.88,0
346941780,26321.673569,1777992358.699379,259,-1265,-1558,4,-6,4,0.126465,-0.617676,-0.760742,0.244141,-0.366211,0.244141,21.01,0
346942791,26321.673575,1777992358.700391,259,-1263,-1558,4,-6,4,0.126465,-0.616699,-0.760742,0.244141,-0.366211,0.244141,21.15,0
346943805,26321.681617,1777992358.701422,255,-1266,-1564,4,-6,4,0.124512,-0.618164,-0.763672,0.244141,-0.366211,0.244141,21.07,0
346944817,26321.681627,1777992358.702435,255,-1268,-1563,4,-6,5,0.124512,-0.619141,-0.763184,0.244141,-0.366211,0.305176,21.04,0
346945828,26321.681634,1777992358.703446,262,-1265,-1557,3,-6,5,0.127930,-0.617676,-0.760254,0.183105,-0.366211,0.305176,21.04,0
346946841,26321.681641,1777992358.704459,264,-1264,-1559,3,-6,6,0.128906,-0.617188,-0.761230,0.183105,-0.366211,0.366211,21.07,0
346947852,26321.681648,1777992358.705471,259,-1263,-1562,3,-7,6,0.126465,-0.616699,-0.762695,0.183105,-0.427246,0.366211,21.01,0
346948864,26321.681655,1777992358.706483,256,-1260,-1560,4,-8,5,0.125000,-0.615234,-0.761719,0.244141,-0.488281,0.305176,21.15,0
346949879,26321.681662,1777992358.707499,254,-1265,-1559,4,-7,4,0.124023,-0.617676,-0.761230,0.244141,-0.427246,0.244141,21.11,0
346950889,26321.681669,1777992358.708509,255,-1268,-1563,3,-5,4,0.124512,-0.619141,-0.763184,0.183105,-0.305176,0.244141,20.98,1
346951903,26321.689782,1777992358.709538,260,-1265,-1562,2,-6,4,0.126953,-0.617676,-0.762695,0.122070,-0.366211,0.244141,21.11,0
346952914,26321.689800,1777992358.710550,260,-1263,-1558,3,-6,4,0.126953,-0.616699,-0.760742,0.183105,-0.366211,0.244141,21.07,0
346953927,26321.689811,1777992358.711563,259,-1267,-1558,3,-6,4,0.126465,-0.618652,-0.760742,0.183105,-0.366211,0.244141,21.03,0
346954937,26321.689867,1777992358.712573,261,-1270,-1557,3,-6,4,0.127441,-0.620117,-0.760254,0.183105,-0.366211,0.244141,21.11,0
346955951,26321.689878,1777992358.713588,261,-1268,-1555,3,-5,3,0.127441,-0.619141,-0.759277,0.183105,-0.305176,0.183105,21.03,0
346956963,26321.689888,1777992358.714600,262,-1266,-1557,2,-5,4,0.127930,-0.618164,-0.760254,0.122070,-0.305176,0.244141,21.01,0
346957974,26321.689899,1777992358.715612,263,-1268,-1561,2,-5,3,0.128418,-0.619141,-0.762207,0.122070,-0.305176,0.183105,20.98,0
346958986,26321.689909,1777992358.716624,258,-1270,-1564,1,-5,3,0.125977,-0.620117,-0.763672,0.061035,-0.305176,0.183105,21.00,0
346959999,26321.697819,1777992358.717638,257,-1271,-1562,1,-4,4,0.125488,-0.620605,-0.762695,0.061035,-0.244141,0.244141,21.17,0
346961013,26321.697842,1777992358.718652,260,-1270,-1559,3,-3,5,0.126953,-0.620117,-0.761230,0.183105,-0.183105,0.305176,21.26,0
346962024,26321.697850,1777992358.719676,257,-1270,-1561,3,-4,4,0.125488,-0.620117,-0.762207,0.183105,-0.244141,0.244141,21.14,1
346963038,26321.697859,1777992358.720690,255,-1269,-1561,2,-5,4,0.124512,-0.619629,-0.762207,0.122070,-0.305176,0.244141,21.00,0
346964048,26321.697866,1777992358.721701,255,-1267,-1557,2,-5,4,0.124512,-0.618652,-0.760254,0.122070,-0.305176,0.244141,20.94,0
346965062,26321.697873,1777992358.722715,256,-1267,-1555,3,-4,4,0.125000,-0.618652,-0.759277,0.183105,-0.244141,0.244141,21.07,0
346966075,26321.697880,1777992358.723729,257,-1265,-1556,3,-4,4,0.125488,-0.617676,-0.759766,0.183105,-0.244141,0.244141,21.15,0
346967086,26321.697887,1777992358.724740,255,-1265,-1557,2,-5,4,0.124512,-0.617676,-0.760254,0.122070,-0.305176,0.244141,21.06,0
346968107,26321.705885,1777992358.725762,253,-1268,-1561,1,-6,3,0.123535,-0.619141,-0.762207,0.061035,-0.366211,0.183105,20.97,0
346969110,26321.705895,1777992358.726765,255,-1266,-1562,2,-6,3,0.124512,-0.618164,-0.762695,0.122070,-0.366211,0.183105,21.04,0
346970124,26321.705902,1777992358.727780,259,-1260,-1560,2,-6,4,0.126465,-0.615234,-0.761719,0.122070,-0.366211,0.244141,21.07,0
346971135,26321.705909,1777992358.728791,261,-1258,-1561,2,-6,4,0.127441,-0.614258,-0.762207,0.122070,-0.366211,0.244141,21.03,0
346972146,26321.705916,1777992358.729803,260,-1260,-1559,2,-5,3,0.126953,-0.615234,-0.761230,0.122070,-0.305176,0.183105,21.11,0
346973160,26321.705922,1777992358.730817,258,-1262,-1558,2,-5,3,0.125977,-0.616211,-0.760742,0.122070,-0.305176,0.183105,21.35,1
346974171,26321.705931,1777992358.731828,257,-1257,-1560,0,-6,2,0.125488,-0.613770,-0.761719,0.000000,-0.366211,0.122070,21.04,0
346975182,26321.705938,1777992358.732840,255,-1254,-1560,-1,-6,2,0.124512,-0.612305,-0.761719,-0.061035,-0.366211,0.122070,21.09,0
346976195,26321.714012,1777992358.733865,256,-1260,-1558,0,-5,2,0.125000,-0.615234,-0.760742,0.000000,-0.305176,0.122070,21.04,0
346977209,26321.714022,1777992358.734879,255,-1264,-1556,0,-4,1,0.124512,-0.617188,-0.759766,0.000000,-0.244141,0.061035,20.97,0
346978219,26321.714029,1777992358.735889,256,-1264,-1557,0,-4,2,0.125000,-0.617188,-0.760254,0.000000,-0.244141,0.122070,21.07,0
346979234,26321.714036,1777992358.736905,257,-1266,-1560,0,-4,2,0.125488,-0.618164,-0.761719,0.000000,-0.244141,0.122070,21.23,0
346980246,26321.714043,1777992358.737917,254,-1266,-1561,1,-4,0,0.124023,-0.618164,-0.762207,0.061035,-0.244141,0.000000,21.09,0
346981258,26321.714051,1777992358.738930,251,-1265,-1561,0,-5,1,0.122559,-0.617676,-0.762207,0.000000,-0.305176,0.061035,20.91,0
346982270,26321.714058,1777992358.739942,252,-1264,-1561,-1,-4,3,0.123047,-0.617188,-0.762207,-0.061035,-0.244141,0.183105,21.07,0
346983280,26321.714065,1777992358.740953,256,-1266,-1560,0,-3,2,0.125000,-0.618164,-0.761719,0.000000,-0.183105,0.122070,21.11,0
346984294,26321.722079,1777992358.741976,256,-1268,-1557,0,-3,1,0.125000,-0.619141,-0.760254,0.000000,-0.183105,0.061035,21.11,1
346985307,26321.722090,1777992358.742990,254,-1269,-1556,0,-4,1,0.124023,-0.619629,-0.759766,0.000000,-0.244141,0.061035,21.17,0
346986317,26321.722098,1777992358.744000,254,-1270,-1558,-1,-4,1,0.124023,-0.620117,-0.760742,-0.061035,-0.244141,0.061035,21.04,0
346987330,26321.722105,1777992358.745013,256,-1270,-1559,-1,-5,1,0.125000,-0.620117,-0.761230,-0.061035,-0.305176,0.061035,21.09,0
346988344,26321.722112,1777992358.746028,253,-1266,-1557,-1,-4,1,0.123535,-0.618164,-0.760254,-0.061035,-0.244141,0.061035,21.12,0
346989354,26321.722119,1777992358.747039,251,-1265,-1556,0,-3,1,0.122559,-0.617676,-0.759766,0.000000,-0.183105,0.061035,21.01,0
346990367,26321.722126,1777992358.748052,254,-1263,-1558,1,-4,0,0.124023,-0.616699,-0.760742,0.061035,-0.244141,0.000000,21.12,0
346991380,26321.722132,1777992358.749065,252,-1263,-1563,1,-4,2,0.123047,-0.616699,-0.763184,0.061035,-0.244141,0.122070,21.11,0
346992392,26321.730202,1777992358.750078,252,-1266,-1560,0,-3,3,0.123047,-0.618164,-0.761719,0.000000,-0.183105,0.183105,21.21,0
346993404,26321.730216,1777992358.751091,258,-1267,-1556,0,-3,2,0.125977,-0.618652,-0.759766,0.000000,-0.183105,0.122070,21.33,0
346994417,26321.730223,1777992358.752104,258,-1267,-1559,0,-3,2,0.125977,-0.618652,-0.761230,0.000000,-0.183105,0.122070,21.26,0
346995429,26321.730230,1777992358.753123,252,-1266,-1561,0,-3,1,0.123047,-0.618164,-0.762207,0.000000,-0.183105,0.061035,21.14,1
346996440,26321.730241,1777992358.754135,250,-1266,-1559,0,-2,1,0.122070,-0.618164,-0.761230,0.000000,-0.122070,0.061035,20.98,0
346997452,26321.730248,1777992358.755147,253,-1267,-1558,-1,-2,1,0.123535,-0.618652,-0.760742,-0.061035,-0.122070,0.061035,21.12,0
346998466,26321.730255,1777992358.756162,253,-1267,-1559,-2,-2,1,0.123535,-0.618652,-0.761230,-0.122070,-0.122070,0.061035,21.24,0
346999477,26321.730262,1777992358.757173,252,-1264,-1560,-3,-2,1,0.123047,-0.617188,-0.761719,-0.183105,-0.122070,0.061035,21.11,0
347000490,26321.738286,1777992358.758187,253,-1264,-1561,-3,-2,1,0.123535,-0.617188,-0.762207,-0.183105,-0.122070,0.061035,21.07,0
347001504,26321.738308,1777992358.759201,251,-1268,-1560,-3,-2,2,0.122559,-0.619141,-0.761719,-0.183105,-0.122070,0.122070,21.09,0
347002513,26321.738319,1777992358.760211,250,-1268,-1558,-3,-2,1,0.122070,-0.619141,-0.760742,-0.183105,-0.122070,0.061035,21.11,0
347003527,26321.738330,1777992358.761225,251,-1265,-1559,-2,-3,2,0.122559,-0.617676,-0.761230,-0.122070,-0.183105,0.122070,21.07,0
347004538,26321.738341,1777992358.762237,253,-1262,-1562,-2,-3,2,0.123535,-0.616211,-0.762695,-0.122070,-0.183105,0.122070,21.15,0
347005551,26321.738351,1777992358.763250,252,-1260,-1562,-2,-3,1,0.123047,-0.615234,-0.762695,-0.122070,-0.183105,0.061035,21.04,0
347006565,26321.738362,1777992358.764265,247,-1261,-1559,-2,-3,0,0.120605,-0.615723,-0.761230,-0.122070,-0.183105,0.000000,21.07,1
347007575,26321.738373,1777992358.765275,248,-1263,-1560,-3,-3,1,0.121094,-0.616699,-0.761719,-0.183105,-0.183105,0.061035,21.06,0
347008587,26321.746401,1777992358.766293,253,-1264,-1558,-2,-3,1,0.123535,-0.617188,-0.760742,-0.122070,-0.183105,0.061035,21.07,0
347009601,26321.746427,1777992358.767308,254,-1266,-1555,-2,-3,0,0.124023,-0.618164,-0.759277,-0.122070,-0.183105,0.000000,20.77,0
347010611,26321.746439,1777992358.768318,253,-1265,-1559,-2,-3,0,0.123535,-0.617676,-0.761230,-0.122070,-0.183105,0.000000,21.03,0
347011624,26321.746450,1777992358.769332,256,-1266,-1563,-3,-3,0,0.125000,-0.618164,-0.763184,-0.183105,-0.183105,0.000000,21.07,0
347012637,26321.746460,1777992358.770345,256,-1266,-1562,-2,-2,-1,0.125000,-0.618164,-0.762695,-0.122070,-0.122070,-0.061035,21.17,0
347013649,26321.746471,1777992358.771358,251,-1262,-1561,-2,-2,-1,0.122559,-0.616211,-0.762207,-0.122070,-0.122070,-0.061035,21.14,0
347014663,26321.746482,1777992358.772372,251,-1259,-1562,-3,-3,0,0.122559,-0.614746,-0.762695,-0.183105,-0.183105,0.000000,21.18,0
347015675,26321.746492,1777992358.773385,254,-1263,-1563,-3,-3,0,0.124023,-0.616699,-0.763184,-0.183105,-0.183105,0.000000,21.07,0
347016687,26321.754508,1777992358.774397,252,-1266,-1561,-3,-2,0,0.123047,-0.618164,-0.762207,-0.183105,-0.122070,0.000000,21.04,0
347017700,26321.754559,1777992358.775415,254,-1266,-1562,-3,-1,0,0.124023,-0.618164,-0.762695,-0.183105,-0.061035,0.000000,21.07,1
347018711,26321.754605,1777992358.776427,257,-1269,-1566,-3,-2,0,0.125488,-0.619629,-0.764648,-0.183105,-0.122070,0.000000,21.03,0
347019724,26321.754616,1777992358.777441,255,-1271,-1565,-3,-2,0,0.124512,-0.620605,-0.764160,-0.183105,-0.122070,0.000000,21.18,0
347020735,26321.754626,1777992358.778452,253,-1266,-1564,-2,-2,0,0.123535,-0.618164,-0.763672,-0.122070,-0.122070,0.000000,21.04,0
347021747,26321.754636,1777992358.779465,251,-1262,-1567,-2,-1,-1,0.122559,-0.616211,-0.765137,-0.122070,-0.061035,-0.061035,21.06,0
347022761,26321.754647,1777992358.780479,247,-1263,-1565,-2,0,0,0.120605,-0.616699,-0.764160,-0.122070,0.000000,0.000000,21.11,0
347023773,26321.754657,1777992358.781492,249,-1266,-1560,-3,-1,0,0.121582,-0.618164,-0.761719,-0.183105,-0.061035,0.000000,21.11,0
347024786,26321.762577,1777992358.782505,250,-1268,-1559,-3,-2,0,0.122070,-0.619141,-0.761230,-0.183105,-0.122070,0.000000,21.15,0
347025798,26321.762611,1777992358.783518,250,-1268,-1561,-3,-2,-1,0.122070,-0.619141,-0.762207,-0.183105,-0.122070,-0.061035,21.26,0
347026809,26321.762627,1777992358.784529,253,-1266,-1564,-4,-2,-1,0.123535,-0.618164,-0.763672,-0.244141,-0.122070,-0.061035,21.06,0
347027822,26321.762637,1777992358.785543,252,-1266,-1567,-4,-2,-1,0.123047,-0.618164,-0.765137,-0.244141,-0.122070,-0.061035,20.95,0
347028832,26321.762647,1777992358.786553,250,-1265,-1564,-3,-2,-1,0.122070,-0.617676,-0.763672,-0.183105,-0.122070,-0.061035,21.12,1
347029844,26321.762659,1777992358.787566,251,-1261,-1561,-4,-3,-1,0.122559,-0.615723,-0.762207,-0.244141,-0.183105,-0.061035,21.04,0
347030858,26321.762666,1777992358.788580,252,-1261,-1563,-4,-2,-1,0.123047,-0.615723,-0.763184,-0.244141,-0.122070,-0.061035,21.12,0
347031869,26321.762674,1777992358.789592,253,-1261,-1564,-4,-1,-1,0.123535,-0.615723,-0.763672,-0.244141,-0.061035,-0.061035,21.04,0
347032882,26321.770902,1777992358.790608,251,-1261,-1564,-5,-1,-1,0.122559,-0.615723,-0.763672,-0.305176,-0.061035,-0.061035,21.23,0
347033893,26321.770923,1777992358.791620,249,-1265,-1562,-4,-1,0,0.121582,-0.617676,-0.762695,-0.244141,-0.061035,0.000000,21.23,0
347034906,26321.770931,1777992358.792634,251,-1264,-1560,-4,-1,0,0.122559,-0.617188,-0.761719,-0.244141,-0.061035,0.000000,21.07,0
347035920,26321.770938,1777992358.793648,250,-1261,-1561,-5,-1,-1,0.122070,-0.615723,-0.762207,-0.305176,-0.061035,-0.061035,21.11,0
347036931,26321.770945,1777992358.794660,248,-1261,-1562,-5,0,-1,0.121094,-0.615723,-0.762695,-0.305176,0.000000,-0.061035,21.09,0
347037944,26321.770952,1777992358.795673,250,-1265,-1562,-5,-1,0,0.122070,-0.617676,-0.762695,-0.305176,-0.061035,0.000000,21.07,0
347038957,26321.770959,1777992358.796687,248,-1267,-1559,-5,-2,0,0.121094,-0.618652,-0.761230,-0.305176,-0.122070,0.000000,21.20,0
347039968,26321.770966,1777992358.797698,245,-1267,-1558,-5,-2,-1,0.119629,-0.618652,-0.760742,-0.305176,-0.122070,-0.061035,21.03,1
347040979,26321.778788,1777992358.798711,248,-1267,-1562,-6,-2,-2,0.121094,-0.618652,-0.762695,-0.366211,-0.122070,-0.122070,21.09,0
347041994,26321.778804,1777992358.799726,251,-1267,-1562,-6,-2,-2,0.122559,-0.618652,-0.762695,-0.366211,-0.122070,-0.122070,21.09,0
347043005,26321.778811,1777992358.800738,251,-1264,-1560,-4,-2,-2,0.122559,-0.617188,-0.761719,-0.244141,-0.122070,-0.122070,21.11,0
347044016,26321.778818,1777992358.801750,251,-1262,-1563,-3,-1,-3,0.122559,-0.616211,-0.763184,-0.183105,-0.061035,-0.183105,21.03,0
347045030,26321.778825,1777992358.802764,253,-1261,-1563,-4,0,-3,0.123535,-0.615723,-0.763184,-0.244141,0.000000,-0.183105,21.04,0
347046040,26321.778832,1777992358.803775,254,-1263,-1561,-4,0,-3,0.124023,-0.616699,-0.762207,-0.244141,0.000000,-0.183105,21.07,0
347047054,26321.778839,1777992358.804789,253,-1268,-1566,-5,-1,-2,0.123535,-0.619141,-0.764648,-0.305176,-0.061035,-0.122070,21.11,0
347048067,26321.778846,1777992358.805803,250,-1269,-1564,-5,-2,-3,0.122070,-0.619629,-0.763672,-0.305176,-0.122070,-0.183105,21.30,0
347049079,26321.786876,1777992358.806815,248,-1267,-1558,-4,-2,-3,0.121094,-0.618652,-0.760742,-0.244141,-0.122070,-0.183105,21.15,0
347050091,26321.786891,1777992358.807828,250,-1264,-1558,-4,-1,-3,0.122070,-0.617188,-0.760742,-0.244141,-0.061035,-0.183105,21.17,0
347051112,26321.786901,1777992358.808849,250,-1265,-1559,-5,0,-3,0.122070,-0.617676,-0.761230,-0.305176,0.000000,-0.183105,21.07,1
347052115,26321.786911,1777992358.809853,251,-1268,-1560,-4,0,-3,0.122559,-0.619141,-0.761719,-0.244141,0.000000,-0.183105,21.03,0
347053126,26321.786922,1777992358.810864,253,-1267,-1563,-4,0,-2,0.123535,-0.618652,-0.763184,-0.244141,0.000000,-0.122070,21.07,0
347054141,26321.786931,1777992358.811880,253,-1267,-1564,-5,1,-2,0.123535,-0.618652,-0.763672,-0.305176,0.061035,-0.122070,21.17,0
347055153,26321.786941,1777992358.812892,251,-1269,-1560,-5,0,-2,0.122559,-0.619629,-0.761719,-0.305176,0.000000,-0.122070,21.41,0
347056164,26321.786952,1777992358.813904,249,-1270,-1559,-5,-1,-3,0.121582,-0.620117,-0.761230,-0.305176,-0.061035,-0.183105,21.07,0
347057178,26321.794969,1777992358.814918,248,-1269,-1562,-5,-1,-3,0.121094,-0.619629,-0.762695,-0.305176,-0.061035,-0.183105,21.26,0
347058189,26321.794980,1777992358.815930,250,-1268,-1561,-5,0,-3,0.122070,-0.619141,-0.762207,-0.305176,0.000000,-0.183105,21.12,0
347059201,26321.794987,1777992358.816942,252,-1268,-1560,-5,0,-3,0.123047,-0.619141,-0.761719,-0.305176,0.000000,-0.183105,21.12,0
347060214,26321.794994,1777992358.817956,252,-1267,-1561,-5,0,-3,0.123047,-0.618652,-0.762207,-0.305176,0.000000,-0.183105,21.04,0
347061225,26321.795004,1777992358.818967,247,-1268,-1562,-6,0,-3,0.120605,-0.619141,-0.762695,-0.366211,0.000000,-0.183105,21.04,0
347062238,26321.795011,1777992358.819981,248,-1270,-1563,-6,1,-3,0.121094,-0.620117,-0.763184,-0.366211,0.061035,-0.183105,21.09,1
347063249,26321.795018,1777992358.820992,251,-1269,-1564,-5,0,-3,0.122559,-0.619629,-0.763672,-0.305176,0.000000,-0.183105,21.00,0
347064261,26321.795025,1777992358.822005,250,-1265,-1563,-5,0,-3,0.122070,-0.617676,-0.763184,-0.305176,0.000000,-0.183105,21.20,0
347065273,26321.803097,1777992358.823017,249,-1262,-1563,-6,-1,-4,0.121582,-0.616211,-0.763184,-0.366211,-0.061035,-0.244141,21.20,0
347066288,26321.803115,1777992358.824033,251,-1264,-1562,-6,-1,-4,0.122559,-0.617188,-0.762695,-0.366211,-0.061035,-0.244141,21.15,0
347067298,26321.803122,1777992358.825043,251,-1267,-1560,-7,-2,-3,0.122559,-0.618652,-0.761719,-0.427246,-0.122070,-0.183105,21.09,0
347068310,26321.803129,1777992358.826056,253,-1267,-1561,-7,-1,-3,0.123535,-0.618652,-0.762207,-0.427246,-0.061035,-0.183105,20.95,0
347069324,26321.803136,1777992358.827070,255,-1267,-1565,-6,1,-3,0.124512,-0.618652,-0.764160,-0.366211,0.061035,-0.183105,21.15,0
347070336,26321.803143,1777992358.828083,253,-1269,-1563,-6,1,-3,0.123535,-0.619629,-0.763184,-0.366211,0.061035,-0.183105,21.07,0
347071347,26321.803150,1777992358.829095,250,-1271,-1557,-7,0,-3,0.122070,-0.620605,-0.760254,-0.427246,0.000000,-0.183105,21.23,0
347072360,26321.803157,1777992358.830108,253,-1267,-1559,-8,0,-3,0.123535,-0.618652,-0.761230,-0.488281,0.000000,-0.183105,21.07,0
347073373,26321.811171,1777992358.831120,256,-1262,-1564,-8,-1,-4,0.125000,-0.616211,-0.763672,-0.488281,-0.061035,-0.244141,21.07,1
347074383,26321.811189,1777992358.832131,251,-1263,-1562,-7,0,-4,0.122559,-0.616699,-0.762695,-0.427246,0.000000,-0.244141,21.07,0
347075397,26321.811199,1777992358.833145,249,-1264,-1561,-7,0,-5,0.121582,-0.617188,-0.762207,-0.427246,0.000000,-0.305176,21.00,0
347076410,26321.811210,1777992358.834159,255,-1267,-1563,-7,0,-4,0.124512,-0.618652,-0.763184,-0.427246,0.000000,-0.244141,21.07,0
347077422,26321.811220,1777992358.835171,256,-1269,-1560,-7,0,-3,0.125000,-0.619629,-0.761719,-0.427246,0.000000,-0.183105,21.11,0
347078434,26321.811230,1777992358.836184,252,-1266,-1559,-7,0,-4,0.123047,-0.618164,-0.761230,-0.427246,0.000000,-0.244141,21.06,0
347079445,26321.811240,1777992358.837195,247,-1264,-1561,-8,1,-4,0.120605,-0.617188,-0.762207,-0.488281,0.061035,-0.244141,20.97,0
347080458,26321.811251,1777992358.838209,249,-1265,-1558,-7,1,-3,0.121582,-0.617676,-0.760742,-0.427246,0.061035,-0.183105,21.23,0
347081470,26321.819277,1777992358.839221,255,-1267,-1557,-6,1,-3,0.124512,-0.618652,-0.760254,-0.366211,0.061035,-0.183105,20.86,0
347082484,26321.819288,1777992358.840236,258,-1268,-1559,-7,1,-4,0.125977,-0.619141,-0.761230,-0.427246,0.061035,-0.244141,21.09,0
347083494,26321.819295,1777992358.841246,258,-1269,-1555,-8,0,-4,0.125977,-0.619629,-0.759277,-0.488281,0.000000,-0.244141,21.04,0
347084506,26321.819302,1777992358.842257,253,-1270,-1556,-7,1,-4,0.123535,-0.620117,-0.759766,-0.427246,0.061035,-0.244141,21.18,1
347085518,26321.819310,1777992358.843269,254,-1269,-1561,-7,2,-4,0.124023,-0.619629,-0.762207,-0.427246,0.122070,-0.244141,21.17,0
347086532,26321.819317,1777992358.844284,256,-1264,-1560,-7,2,-4,0.125000,-0.617188,-0.761719,-0.427246,0.122070,-0.244141,21.07,0
347087545,26321.819324,1777992358.845297,254,-1263,-1556,-7,0,-4,0.124023,-0.616699,-0.759766,-0.427246,0.000000,-0.244141,21.06,0
347088555,26321.819331,1777992358.846308,253,-1265,-1559,-6,0,-4,0.123535,-0.617676,-0.761230,-0.366211,0.000000,-0.244141,21.09,0
347089569,26321.827333,1777992358.847322,254,-1264,-1560,-6,1,-4,0.124023,-0.617188,-0.761719,-0.366211,0.061035,-0.244141,21.11,0
347090581,26321.827343,1777992358.848335,253,-1266,-1557,-6,1,-4,0.123535,-0.618164,-0.760254,-0.366211,0.061035,-0.244141,21.09,0
347091594,26321.827350,1777992358.849348,254,-1269,-1560,-7,0,-4,0.124023,-0.619629,-0.761719,-0.427246,0.000000,-0.244141,21.04,0
347092607,26321.827357,1777992358.850362,255,-1270,-1563,-8,0,-5,0.124512,-0.620117,-0.763184,-0.488281,0.000000,-0.305176,21.06,0
347093619,26321.827364,1777992358.851374,257,-1270,-1559,-8,0,-4,0.125488,-0.620117,-0.761230,-0.488281,0.000000,-0.244141,21.21,0
347094631,26321.827371,1777992358.852387,257,-1268,-1559,-6,0,-4,0.125488,-0.619141,-0.761230,-0.366211,0.000000,-0.244141,20.98,0
347095641,26321.827378,1777992358.853397,255,-1267,-1562,-6,0,-4,0.124512,-0.618652,-0.762695,-0.366211,0.000000,-0.244141,21.07,1
347096654,26321.827385,1777992358.854411,255,-1267,-1562,-8,0,-4,0.124512,-0.618652,-0.762695,-0.488281,0.000000,-0.244141,21.07,0
347097668,26321.835517,1777992358.855422,259,-1267,-1560,-9,0,-4,0.126465,-0.618652,-0.761719,-0.549316,0.000000,-0.244141,21.07,0
347098679,26321.835540,1777992358.856434,257,-1269,-1560,-8,0,-4,0.125488,-0.619629,-0.761719,-0.488281,0.000000,-0.244141,21.04,0
347099690,26321.835547,1777992358.857445,250,-1268,-1562,-7,1,-5,0.122070,-0.619141,-0.762695,-0.427246,0.061035,-0.305176,21.07,0
347100703,26321.835554,1777992358.858459,253,-1267,-1561,-8,1,-4,0.123535,-0.618652,-0.762207,-0.488281,0.061035,-0.244141,21.09,0
347101715,26321.835562,1777992358.859471,259,-1269,-1557,-8,1,-4,0.126465,-0.619629,-0.760254,-0.488281,0.061035,-0.244141,21.23,0
347102728,26321.835569,1777992358.860485,257,-1270,-1557,-8,1,-4,0.125488,-0.620117,-0.760254,-0.488281,0.061035,-0.244141,21.23,0
347103740,26321.835576,1777992358.861497,254,-1269,-1557,-8,1,-4,0.124023,-0.619629,-0.760254,-0.488281,0.061035,-0.244141,20.91,0
347104753,26321.835583,1777992358.862511,256,-1269,-1558,-9,0,-4,0.125000,-0.619629,-0.760742,-0.549316,0.000000,-0.244141,21.09,0
347105763,26321.843545,1777992358.863521,254,-1267,-1557,-9,1,-4,0.124023,-0.618652,-0.760254,-0.549316,0.061035,-0.244141,21.09,0
347106777,26321.843561,1777992358.864532,253,-1265,-1559,-9,1,-5,0.123535,-0.617676,-0.761230,-0.549316,0.061035,-0.305176,21.07,1
347107788,26321.843573,1777992358.865544,255,-1267,-1558,-9,1,-4,0.124512,-0.618652,-0.760742,-0.549316,0.061035,-0.244141,21.15,0
347108803,26321.843583,1777992358.866559,254,-1269,-1556,-9,1,-4,0.124023,-0.619629,-0.759766,-0.549316,0.061035,-0.244141,21.17,0
347109814,26321.843593,1777992358.867571,254,-1267,-1556,-9,1,-5,0.124023,-0.618652,-0.759766,-0.549316,0.061035,-0.305176,21.09,0
347110825,26321.843603,1777992358.868582,258,-1267,-1558,-8,1,-5,0.125977,-0.618652,-0.760742,-0.488281,0.061035,-0.305176,21.15,0
347111839,26321.843614,1777992358.869597,258,-1268,-1558,-8,1,-5,0.125977,-0.619141,-0.760742,-0.488281,0.061035,-0.305176,21.23,0
347112851,26321.843624,1777992358.870609,254,-1267,-1559,-8,1,-5,0.124023,-0.618652,-0.761230,-0.488281,0.061035,-0.305176,21.11,0
347113863,26321.851651,1777992358.871622,253,-1265,-1558,-8,2,-4,0.123535,-0.617676,-0.760742,-0.488281,0.122070,-0.244141,21.03,0
347114876,26321.851660,1777992358.872635,256,-1266,-1555,-8,2,-4,0.125000,-0.618164,-0.759277,-0.488281,0.122070,-0.244141,21.01,0
347115886,26321.851667,1777992358.873646,256,-1266,-1555,-8,2,-5,0.125000,-0.618164,-0.759277,-0.488281,0.122070,-0.305176,21.01,0
347116898,26321.851674,1777992358.874658,258,-1265,-1554,-8,1,-5,0.125977,-0.617676,-0.758789,-0.488281,0.061035,-0.305176,20.97,0
347117911,26321.851681,1777992358.875672,260,-1265,-1555,-8,1,-4,0.126953,-0.617676,-0.759277,-0.488281,0.061035,-0.244141,21.06,1
347118924,26321.851689,1777992358.876685,256,-1267,-1558,-8,2,-3,0.125000,-0.618652,-0.760742,-0.488281,0.122070,-0.183105,21.06,0
347119935,26321.851696,1777992358.877697,254,-1267,-1556,-8,3,-4,0.124023,-0.618652,-0.759766,-0.488281,0.183105,-0.244141,21.11,0
347120949,26321.851703,1777992358.878711,257,-1266,-1555,-8,3,-5,0.125488,-0.618164,-0.759277,-0.488281,0.183105,-0.305176,21.03,0
347121961,26321.859754,1777992358.879724,258,-1265,-1557,-8,2,-6,0.125977,-0.617676,-0.760254,-0.488281,0.122070,-0.366211,20.98,0
347122974,26321.859762,1777992358.880737,256,-1266,-1560,-8,2,-5,0.125000,-0.618164,-0.761719,-0.488281,0.122070,-0.305176,21.14,0
347123984,26321.859769,1777992358.881748,256,-1266,-1563,-9,3,-4,0.125000,-0.618164,-0.763184,-0.549316,0.183105,-0.244141,21.17,0
347124998,26321.859776,1777992358.882762,259,-1268,-1561,-9,3,-3,0.126465,-0.619141,-0.762207,-0.549316,0.183105,-0.183105,20.95,0
347126010,26321.859783,1777992358.883775,258,-1270,-1559,-8,1,-4,0.125977,-0.620117,-0.761230,-0.488281,0.061035,-0.244141,21.21,0
347127023,26321.859791,1777992358.884788,256,-1269,-1559,-8,2,-5,0.125000,-0.619629,-0.761230,-0.488281,0.122070,-0.305176,21.03,0
347128034,26321.859798,1777992358.885800,255,-1267,-1560,-9,3,-5,0.124512,-0.618652,-0.761719,-0.549316,0.183105,-0.305176,21.01,0
347129047,26321.859805,1777992358.886813,258,-1266,-1559,-9,2,-6,0.125977,-0.618164,-0.761230,-0.549316,0.122070,-0.366211,21.04,1
347130059,26321.867845,1777992358.887820,258,-1266,-1558,-8,2,-5,0.125977,-0.618164,-0.760742,-0.488281,0.122070,-0.305176,21.11,0
347131070,26321.867857,1777992358.888832,255,-1267,-1557,-8,2,-5,0.124512,-0.618652,-0.760254,-0.488281,0.122070,-0.305176,21.17,0
347132084,26321.867865,1777992358.889846,257,-1267,-1557,-8,2,-5,0.125488,-0.618652,-0.760254,-0.488281,0.122070,-0.305176,21.09,0
347133104,26321.867872,1777992358.890867,260,-1266,-1559,-8,2,-5,0.126953,-0.618164,-0.761230,-0.488281,0.122070,-0.305176,21.01,0
347134109,26321.867879,1777992358.891872,260,-1267,-1559,-9,2,-5,0.126953,-0.618652,-0.761230,-0.549316,0.122070,-0.305176,21.04,0
347135121,26321.867886,1777992358.892885,260,-1268,-1558,-9,2,-5,0.126953,-0.619141,-0.760742,-0.549316,0.122070,-0.305176,21.15,0
347136133,26321.867893,1777992358.893897,259,-1266,-1558,-9,2,-5,0.126465,-0.618164,-0.760742,-0.549316,0.122070,-0.305176,21.11,0
347137145,26321.867900,1777992358.894910,259,-1266,-1559,-9,2,-4,0.126465,-0.618164,-0.761230,-0.549316,0.122070,-0.244141,21.07,0
347138157,26321.875950,1777992358.895922,259,-1267,-1559,-8,2,-4,0.126465,-0.618652,-0.761230,-0.488281,0.122070,-0.244141,21.12,0
347139168,26321.875968,1777992358.896934,259,-1267,-1556,-8,2,-5,0.126465,-0.618652,-0.759766,-0.488281,0.122070,-0.305176,21.06,0
347140181,26321.875975,1777992358.897941,260,-1267,-1554,-8,2,-6,0.126953,-0.618652,-0.758789,-0.488281,0.122070,-0.366211,21.21,1
347141194,26321.875984,1777992358.898954,260,-1267,-1559,-8,2,-6,0.126953,-0.618652,-0.761230,-0.488281,0.122070,-0.366211,21.01,0
347142206,26321.875991,1777992358.899966,260,-1266,-1562,-9,2,-5,0.126953,-0.618164,-0.762695,-0.549316,0.122070,-0.305176,21.04,0
347143219,26321.875998,1777992358.900980,261,-1263,-1558,-10,1,-4,0.127441,-0.616699,-0.760742,-0.610352,0.061035,-0.244141,21.14,0
347144231,26321.876008,1777992358.901993,260,-1264,-1556,-9,1,-4,0.126953,-0.617188,-0.759766,-0.549316,0.061035,-0.244141,21.00,0
347145244,26321.876052,1777992358.903006,259,-1270,-1558,-8,2,-5,0.126465,-0.620117,-0.760742,-0.488281,0.122070,-0.305176,21.14,0
347146254,26321.884343,1777992358.904016,260,-1272,-1559,-10,2,-5,0.126953,-0.621094,-0.761230,-0.610352,0.122070,-0.305176,21.14,0
347147267,26321.884354,1777992358.905030,259,-1270,-1560,-10,2,-5,0.126465,-0.620117,-0.761719,-0.610352,0.122070,-0.305176,21.09,0
347148280,26321.884361,1777992358.906044,257,-1270,-1559,-9,2,-5,0.125488,-0.620117,-0.761230,-0.549316,0.122070,-0.305176,21.07,0
347149291,26321.884368,1777992358.907055,258,-1271,-1558,-9,3,-5,0.125977,-0.620605,-0.760742,-0.549316,0.183105,-0.305176,21.00,0
347150305,26321.884375,1777992358.908069,259,-1268,-1560,-9,3,-5,0.126465,-0.619141,-0.761719,-0.549316,0.183105,-0.305176,21.29,0
347151316,26321.884382,1777992358.909081,259,-1265,-1561,-9,3,-4,0.126465,-0.617676,-0.762207,-0.549316,0.183105,-0.244141,20.91,1
347152327,26321.884390,1777992358.910092,259,-1266,-1559,-9,2,-5,0.126465,-0.618164,-0.761230,-0.549316,0.122070,-0.305176,21.00,0
347153339,26321.884397,1777992358.911105,257,-1270,-1557,-9,2,-5,0.125488,-0.620117,-0.760254,-0.549316,0.122070,-0.305176,21.17,0
347154351,26321.892157,1777992358.912111,256,-1271,-1558,-9,2,-4,0.125000,-0.620605,-0.760742,-0.549316,0.122070,-0.244141,21.04,0
347155365,26321.892172,1777992358.913125,257,-1269,-1560,-9,2,-4,0.125488,-0.619629,-0.761719,-0.549316,0.122070,-0.244141,21.09,0
347156378,26321.892180,1777992358.914139,257,-1268,-1561,-9,2,-5,0.125488,-0.619141,-0.762207,-0.549316,0.122070,-0.305176,21.06,0
347157388,26321.892187,1777992358.915149,259,-1267,-1558,-9,2,-5,0.126465,-0.618652,-0.760742,-0.549316,0.122070,-0.305176,21.11,0
347158403,26321.892194,1777992358.916164,265,-1267,-1557,-9,1,-4,0.129395,-0.618652,-0.760254,-0.549316,0.061035,-0.244141,21.01,0
347159414,26321.892201,1777992358.917176,262,-1264,-1560,-10,2,-4,0.127930,-0.617188,-0.761719,-0.610352,0.122070,-0.244141,21.07,0
347160427,26321.892208,1777992358.918189,256,-1265,-1562,-8,2,-4,0.125000,-0.617676,-0.762695,-0.488281,0.122070,-0.244141,21.12,0
347161440,26321.892215,1777992358.919203,258,-1269,-1562,-8,2,-4,0.125977,-0.619629,-0.762695,-0.488281,0.122070,-0.244141,20.89,0
347162449,26321.900257,1777992358.920205,258,-1272,-1560,-9,2,-4,0.125977,-0.621094,-0.761719,-0.549316,0.122070,-0.244141,21.06,1
347163462,26321.900276,1777992358.921218,258,-1269,-1562,-9,2,-4,0.125977,-0.619629,-0.762695,-0.549316,0.122070,-0.244141,21.04,0
347164476,26321.900284,1777992358.922233,261,-1267,-1564,-9,2,-4,0.127441,-0.618652,-0.763672,-0.549316,0.122070,-0.244141,21.01,0
347165487,26321.900291,1777992358.923244,264,-1265,-1559,-8,3,-4,0.128906,-0.617676,-0.761230,-0.488281,0.183105,-0.244141,21.03,0
347166500,26321.900298,1777992358.924258,261,-1265,-1555,-8,2,-4,0.127441,-0.617676,-0.759277,-0.488281,0.122070,-0.244141,21.03,0
347167511,26321.900306,1777992358.925269,257,-1267,-1558,-8,2,-5,0.125488,-0.618652,-0.760742,-0.488281,0.122070,-0.305176,21.04,0
347168524,26321.900313,1777992358.926283,260,-1268,-1561,-8,2,-5,0.126953,-0.619141,-0.762207,-0.488281,0.122070,-0.305176,20.98,0
347169535,26321.900320,1777992358.927294,263,-1269,-1561,-8,2,-4,0.128418,-0.619629,-0.762207,-0.488281,0.122070,-0.244141,21.07,0
347170548,26321.908347,1777992358.928308,259,-1268,-1561,-8,2,-4,0.126465,-0.619141,-0.762207,-0.488281,0.122070,-0.244141,21.06,0
347171562,26321.908359,1777992358.929322,256,-1266,-1560,-8,2,-4,0.125000,-0.618164,-0.761719,-0.488281,0.122070,-0.244141,21.04,0
347172574,26321.908367,1777992358.930335,258,-1267,-1557,-8,2,-4,0.125977,-0.618652,-0.760254,-0.488281,0.122070,-0.244141,21.18,0
347173584,26321.908374,1777992358.931338,257,-1268,-1557,-8,2,-4,0.125488,-0.619141,-0.760254,-0.488281,0.122070,-0.244141,21.00,1
347174597,26321.908382,1777992358.932351,257,-1269,-1557,-9,3,-4,0.125488,-0.619629,-0.760254,-0.549316,0.183105,-0.244141,21.54,0
347175611,26321.908389,1777992358.933366,258,-1268,-1555,-9,2,-3,0.125977,-0.619141,-0.759277,-0.549316,0.122070,-0.183105,21.35,0
347176622,26321.908396,1777992358.934377,257,-1265,-1557,-9,1,-3,0.125488,-0.617676,-0.760254,-0.549316,0.061035,-0.183105,21.23,0
347177636,26321.908403,1777992358.935391,258,-1265,-1560,-8,1,-4,0.125977,-0.617676,-0.761719,-0.488281,0.061035,-0.244141,21.21,0
347178646,26321.916512,1777992358.936402,260,-1265,-1562,-7,2,-5,0.126953,-0.617676,-0.762695,-0.427246,0.122070,-0.305176,21.38,0
347179660,26321.916521,1777992358.937416,259,-1264,-1564,-7,2,-5,0.126465,-0.617188,-0.763672,-0.427246,0.122070,-0.305176,21.15,0
347180671,26321.916529,1777992358.938428,259,-1264,-1562,-8,1,-4,0.126465,-0.617188,-0.762695,-0.488281,0.061035,-0.244141,21.07,0
347181683,26321.916536,1777992358.939440,260,-1262,-1559,-9,1,-4,0.126953,-0.616211,-0.761230,-0.549316,0.061035,-0.244141,21.32,0
347182697,26321.916543,1777992358.940455,263,-1262,-1558,-8,1,-5,0.128418,-0.616211,-0.760742,-0.488281,0.061035,-0.305176,21.12,0
347183708,26321.916550,1777992358.941466,263,-1264,-1555,-7,1,-4,0.128418,-0.617188,-0.759277,-0.427246,0.061035,-0.244141,21.00,0
