esp_timestamp_us,host_timestamp_s,unified_time_s,accel_x_raw,accel_y_raw,accel_z_raw,gyro_x_raw,gyro_y_raw,gyro_z_raw,accel_x_g,accel_y_g,accel_z_g,gyro_x_dps,gyro_y_dps,gyro_z_dps,temperature_c,fsync_flag
2897301049,24266.084712,1777903097.690759,-1055,130,1776,-3,-1,0,-0.515137,0.063477,0.867188,-0.183105,-0.061035,0.000000,21.41,0
2897302062,24266.084762,1777903097.691772,-1061,131,1774,-3,0,0,-0.518066,0.063965,0.866211,-0.183105,0.000000,0.000000,21.54,0
2897303074,24266.084773,1777903097.692784,-1062,129,1773,-3,-2,-1,-0.518555,0.062988,0.865723,-0.183105,-0.122070,-0.061035,21.56,0
2897304097,24266.084783,1777903097.693807,-1061,130,1772,-2,-3,-1,-0.518066,0.063477,0.865234,-0.122070,-0.183105,-0.061035,21.59,0
2897305099,24266.084792,1777903097.694809,-1063,132,1771,-3,-3,0,-0.519043,0.064453,0.864746,-0.183105,-0.183105,0.000000,21.56,1
2897306111,24266.084803,1777903097.695821,-1064,128,1771,-3,-2,0,-0.519531,0.062500,0.864746,-0.183105,-0.122070,0.000000,21.53,0
2897307122,24266.084813,1777903097.696832,-1062,127,1767,-2,-1,-1,-0.518555,0.062012,0.862793,-0.122070,-0.061035,-0.061035,21.59,0
2897308136,24266.084824,1777903097.697846,-1061,132,1772,-1,-1,-1,-0.518066,0.064453,0.865234,-0.061035,-0.061035,-0.061035,21.54,0
2897309149,24266.092809,1777903097.698859,-1062,132,1778,-2,-2,-1,-0.518555,0.064453,0.868164,-0.122070,-0.122070,-0.061035,21.44,0
2897310161,24266.092827,1777903097.699871,-1062,129,1777,-3,-1,-1,-0.518555,0.062988,0.867676,-0.183105,-0.061035,-0.061035,21.53,0
2897311171,24266.092837,1777903128.976896,-1061,132,1777,-2,0,-1,-0.518066,0.064453,0.867676,-0.122070,0.000000,-0.061035,21.54,0
2897312184,24266.092846,1777903123.181312,-1061,132,1776,-1,0,0,-0.518066,0.064453,0.867188,-0.061035,0.000000,0.000000,21.57,0
2897313198,24266.092855,1777903117.622003,-1059,130,1774,-2,-1,0,-0.517090,0.063477,0.866211,-0.122070,-0.061035,0.000000,21.51,0
2897314211,24266.092865,1777903112.679930,-1058,130,1773,-3,-2,0,-0.516602,0.063477,0.865723,-0.183105,-0.122070,0.000000,21.56,0
2897315221,24266.092874,1777903107.343949,-1059,130,1774,-3,-2,-1,-0.517090,0.063477,0.866211,-0.183105,-0.122070,-0.061035,21.42,0
2897316233,24266.092883,1777903101.581219,-1059,129,1774,-3,-2,0,-0.517090,0.062988,0.866211,-0.183105,-0.122070,0.000000,21.50,1
2897317246,24266.100978,1777903097.693295,-1056,130,1774,-3,-2,0,-0.515625,0.063477,0.866211,-0.183105,-0.122070,0.000000,21.51,0
2897318260,24266.100998,1777903097.694293,-1058,132,1773,-3,-1,0,-0.516602,0.064453,0.865723,-0.183105,-0.061035,0.000000,21.50,0
2897319272,24266.101014,1777903097.695289,-1061,131,1771,-3,-1,-1,-0.518066,0.063965,0.864746,-0.183105,-0.061035,-0.061035,21.56,0
2897320282,24266.101023,1777903097.696283,-1057,128,1773,-3,-2,-1,-0.516113,0.062500,0.865723,-0.183105,-0.122070,-0.061035,21.48,0
2897321297,24266.101033,1777903097.697282,-1057,130,1776,-2,-2,-1,-0.516113,0.063477,0.867188,-0.122070,-0.122070,-0.061035,21.50,0
2897322307,24266.101042,1777903097.698276,-1062,130,1771,-1,-2,-1,-0.518555,0.063477,0.864746,-0.061035,-0.122070,-0.061035,21.56,0
2897323320,24266.101052,1777903097.699273,-1059,127,1767,-1,-1,0,-0.517090,0.062012,0.862793,-0.061035,-0.061035,0.000000,21.51,0
2897324333,24266.101061,1777903097.700269,-1056,128,1771,-2,-1,0,-0.515625,0.062500,0.864746,-0.122070,-0.061035,0.000000,21.54,0
2897325344,24266.108998,1777903097.701264,-1058,130,1775,-2,-2,-1,-0.516602,0.063477,0.866699,-0.122070,-0.122070,-0.061035,21.54,0
2897326356,24266.109025,1777903097.702260,-1062,131,1771,-1,-2,-1,-0.518555,0.063965,0.864746,-0.061035,-0.122070,-0.061035,21.50,0
2897327370,24266.109047,1777903097.703459,-1062,130,1769,-1,-2,0,-0.518555,0.063477,0.863770,-0.061035,-0.122070,0.000000,21.56,1
2897328382,24266.109058,1777903097.704466,-1059,128,1773,-2,-1,-1,-0.517090,0.062500,0.865723,-0.122070,-0.061035,-0.061035,21.74,0
2897329392,24266.109068,1777903097.705470,-1059,129,1776,-2,-1,-1,-0.517090,0.062988,0.867188,-0.122070,-0.061035,-0.061035,21.56,0
2897330405,24266.109077,1777903097.706478,-1059,131,1775,-2,-2,-1,-0.517090,0.063965,0.866699,-0.122070,-0.122070,-0.061035,21.56,0
2897331417,24266.109087,1777903097.707484,-1058,130,1772,-2,-2,0,-0.516602,0.063477,0.865234,-0.122070,-0.122070,0.000000,21.50,0
2897332431,24266.109096,1777903097.708493,-1058,129,1773,-3,-2,0,-0.516602,0.062988,0.865723,-0.183105,-0.122070,0.000000,21.50,0
2897333442,24266.117086,1777903097.709498,-1060,131,1776,-3,-2,-1,-0.517578,0.063965,0.867188,-0.183105,-0.122070,-0.061035,21.54,0
2897334456,24266.117105,1777903097.710507,-1061,131,1774,-2,-2,-1,-0.518066,0.063965,0.866211,-0.122070,-0.122070,-0.061035,21.57,0
2897335466,24266.117115,1777903097.711512,-1059,129,1771,-2,-3,0,-0.517090,0.062988,0.864746,-0.122070,-0.183105,0.000000,21.50,0
2897336479,24266.117125,1777903097.712519,-1058,129,1772,-3,-2,0,-0.516602,0.062988,0.865234,-0.183105,-0.122070,0.000000,21.45,0
2897337491,24266.117134,1777903097.713526,-1061,129,1772,-3,-2,-1,-0.518066,0.062988,0.865234,-0.183105,-0.122070,-0.061035,21.48,0
2897338503,24266.117143,1777903097.714532,-1060,129,1773,-3,-2,-1,-0.517578,0.062988,0.865723,-0.183105,-0.122070,-0.061035,21.59,1
2897339515,24266.117153,1777903097.715539,-1061,130,1775,-3,-3,-1,-0.518066,0.063477,0.866699,-0.183105,-0.183105,-0.061035,21.50,0
2897340527,24266.117162,1777903097.716545,-1062,130,1774,-3,-3,0,-0.518555,0.063477,0.866211,-0.183105,-0.183105,0.000000,21.44,0
2897341539,24266.125418,1777903097.717623,-1060,130,1770,-2,-1,-1,-0.517578,0.063477,0.864258,-0.122070,-0.061035,-0.061035,21.54,0
2897342554,24266.125437,1777903097.718635,-1062,131,1770,-2,-1,-1,-0.518555,0.063965,0.864258,-0.122070,-0.061035,-0.061035,21.60,0
2897343566,24266.125443,1777903097.719644,-1063,132,1773,-2,-2,0,-0.519043,0.064453,0.865723,-0.122070,-0.122070,0.000000,21.53,0
2897344577,24266.125450,1777903097.720652,-1059,132,1773,-3,-2,-1,-0.517090,0.064453,0.865723,-0.183105,-0.122070,-0.061035,21.51,0
2897345591,24266.125456,1777903097.721663,-1060,133,1771,-3,-1,-2,-0.517578,0.064941,0.864746,-0.183105,-0.061035,-0.122070,21.65,0
2897346603,24266.125462,1777903097.722671,-1060,132,1770,-2,-1,-1,-0.517578,0.064453,0.864258,-0.122070,-0.061035,-0.061035,21.48,0
2897347613,24266.125468,1777903097.723678,-1062,128,1774,-2,-2,0,-0.518555,0.062500,0.866211,-0.122070,-0.122070,0.000000,21.59,0
2897348626,24266.125474,1777903097.724688,-1064,126,1776,-2,-2,0,-0.519531,0.061523,0.867188,-0.122070,-0.122070,0.000000,21.56,0
2897349638,24266.133269,1777903097.725754,-1062,129,1773,-2,-1,-1,-0.518555,0.062988,0.865723,-0.122070,-0.061035,-0.061035,21.57,1
2897350652,24266.133287,1777903097.726767,-1062,131,1773,-2,-1,-2,-0.518555,0.063965,0.865723,-0.122070,-0.061035,-0.122070,21.53,0
2897351662,24266.133297,1777903097.727776,-1061,129,1774,-3,-1,-2,-0.518066,0.062988,0.866211,-0.183105,-0.061035,-0.122070,21.59,0
2897352676,24266.133306,1777903097.728789,-1060,130,1773,-2,-2,-1,-0.517578,0.063477,0.865723,-0.122070,-0.122070,-0.061035,21.59,0
2897353688,24266.133316,1777903097.729800,-1060,131,1772,-1,-2,0,-0.517578,0.063965,0.865234,-0.061035,-0.122070,0.000000,21.56,0
2897354699,24266.133325,1777903097.730809,-1060,131,1772,-1,-2,0,-0.517578,0.063965,0.865234,-0.061035,-0.122070,0.000000,21.44,0
2897355713,24266.133335,1777903097.731822,-1060,129,1770,-2,-2,0,-0.517578,0.062988,0.864258,-0.122070,-0.122070,0.000000,21.51,0
2897356725,24266.133344,1777903097.732833,-1059,129,1772,-3,-2,-1,-0.517090,0.062988,0.865234,-0.183105,-0.122070,-0.061035,21.56,0
2897357736,24266.141397,1777903097.733843,-1058,131,1773,-2,-3,0,-0.516602,0.063965,0.865723,-0.122070,-0.183105,0.000000,21.48,0
2897358748,24266.141414,1777903097.734854,-1059,130,1772,-2,-2,-1,-0.517090,0.063477,0.865234,-0.122070,-0.122070,-0.061035,21.56,0
2897359760,24266.141420,1777903097.735864,-1059,129,1775,-3,0,-1,-0.517090,0.062988,0.866699,-0.183105,0.000000,-0.061035,21.56,0
2897360775,24266.141426,1777903097.736855,-1059,129,1773,-4,-1,-1,-0.517090,0.062988,0.865723,-0.244141,-0.061035,-0.061035,21.56,1
2897361785,24266.141432,1777903097.737863,-1059,127,1769,-2,-2,0,-0.517090,0.062012,0.863770,-0.122070,-0.122070,0.000000,21.51,0
2897362798,24266.141474,1777903097.738874,-1058,128,1771,-1,-1,0,-0.516602,0.062500,0.864746,-0.061035,-0.061035,0.000000,21.54,0
2897363812,24266.141480,1777903097.739886,-1057,130,1772,-1,-1,0,-0.516113,0.063477,0.865234,-0.061035,-0.061035,0.000000,21.51,0
2897364823,24266.141486,1777903097.740895,-1059,130,1769,-2,-2,0,-0.517090,0.063477,0.863770,-0.122070,-0.122070,0.000000,21.60,0
2897365835,24266.149477,1777903097.741905,-1061,131,1770,-2,-2,-1,-0.518066,0.063965,0.864258,-0.122070,-0.122070,-0.061035,21.53,0
2897366848,24266.149488,1777903097.742916,-1059,130,1775,-3,-2,-1,-0.517090,0.063477,0.866699,-0.183105,-0.122070,-0.061035,21.51,0
2897367861,24266.149495,1777903097.743927,-1057,128,1774,-3,-2,-1,-0.516113,0.062500,0.866211,-0.183105,-0.122070,-0.061035,21.51,0
2897368871,24266.149501,1777903097.744935,-1059,128,1773,-2,-2,0,-0.517090,0.062500,0.865723,-0.122070,-0.122070,0.000000,21.62,0
2897369885,24266.149507,1777903097.745946,-1059,127,1771,-3,-1,0,-0.517090,0.062012,0.864746,-0.183105,-0.061035,0.000000,21.65,0
2897370897,24266.149512,1777903097.746956,-1059,127,1770,-3,-1,-2,-0.517090,0.062012,0.864258,-0.183105,-0.061035,-0.122070,21.47,0
2897371909,24266.149518,1777903097.747966,-1060,128,1770,-4,-1,-2,-0.517578,0.062500,0.864258,-0.244141,-0.061035,-0.122070,21.45,1
2897372920,24266.149525,1777903097.748975,-1062,128,1771,-3,-1,-1,-0.518555,0.062500,0.864746,-0.183105,-0.061035,-0.061035,21.47,0
2897373933,24266.157591,1777903097.750023,-1059,126,1776,-3,-1,-1,-0.517090,0.061523,0.867188,-0.183105,-0.061035,-0.061035,21.50,0
2897374945,24266.157602,1777903097.751034,-1058,127,1775,-3,-2,-1,-0.516602,0.062012,0.866699,-0.183105,-0.122070,-0.061035,21.51,0
2897375958,24266.157609,1777903097.752046,-1062,132,1771,-3,-1,0,-0.518555,0.064453,0.864746,-0.183105,-0.061035,0.000000,21.42,0
2897376969,24266.157615,1777903097.753056,-1063,131,1773,-3,-1,0,-0.519043,0.063965,0.865723,-0.183105,-0.061035,0.000000,21.50,0
2897377982,24266.157621,1777903097.754067,-1060,131,1774,-2,-1,-1,-0.517578,0.063965,0.866211,-0.122070,-0.061035,-0.061035,21.56,0
2897378993,24266.157627,1777903097.755077,-1061,130,1772,-2,-3,-1,-0.518066,0.063477,0.865234,-0.122070,-0.183105,-0.061035,21.50,0
2897380008,24266.157633,1777903097.756091,-1062,128,1777,-3,-2,0,-0.518555,0.062500,0.867676,-0.183105,-0.122070,0.000000,21.59,0
2897381019,24266.157639,1777903097.757101,-1060,128,1776,-3,-1,-1,-0.517578,0.062500,0.867188,-0.183105,-0.061035,-0.061035,21.54,0
2897382032,24266.165710,1777903097.758112,-1059,131,1771,-3,-1,-1,-0.517090,0.063965,0.864746,-0.183105,-0.061035,-0.061035,21.51,0
2897383043,24266.165734,1777903097.759147,-1062,132,1771,-3,-2,0,-0.518555,0.064453,0.864746,-0.183105,-0.122070,0.000000,21.50,1
2897384057,24266.165746,1777903097.760161,-1063,131,1773,-2,-2,-1,-0.519043,0.063965,0.865723,-0.122070,-0.122070,-0.061035,21.56,0
2897385069,24266.165755,1777903097.761172,-1062,133,1772,-2,0,-1,-0.518555,0.064941,0.865234,-0.122070,0.000000,-0.061035,21.54,0
2897386081,24266.165765,1777903097.762183,-1064,133,1772,-2,0,-1,-0.519531,0.064941,0.865234,-0.122070,0.000000,-0.061035,21.53,0
2897387100,24266.165774,1777903097.763202,-1062,129,1773,-3,-1,0,-0.518555,0.062988,0.865723,-0.183105,-0.061035,0.000000,21.59,0
2897388105,24266.165783,1777903097.764206,-1056,130,1772,-3,-2,-1,-0.515625,0.063477,0.865234,-0.183105,-0.122070,-0.061035,21.51,0
2897389117,24266.165792,1777903097.765217,-1056,130,1771,-2,-2,0,-0.515625,0.063477,0.864746,-0.122070,-0.122070,0.000000,21.54,0
2897390130,24266.173813,1777903097.766230,-1059,128,1770,-2,-2,0,-0.517090,0.062500,0.864258,-0.122070,-0.122070,0.000000,21.63,0
2897391141,24266.173836,1777903097.767240,-1062,127,1769,-2,-3,-1,-0.518555,0.062012,0.863770,-0.122070,-0.183105,-0.061035,21.53,0
2897392153,24266.173846,1777903097.768251,-1060,127,1770,-1,-2,-1,-0.517578,0.062012,0.864258,-0.061035,-0.122070,-0.061035,21.57,0
2897393165,24266.173856,1777903097.769263,-1058,129,1770,-2,-2,-1,-0.516602,0.062988,0.864258,-0.122070,-0.122070,-0.061035,21.54,0
2897394180,24266.173865,1777903097.770277,-1060,132,1768,-2,-1,-1,-0.517578,0.064453,0.863281,-0.122070,-0.061035,-0.061035,21.50,1
2897395190,24266.173875,1777903097.771286,-1060,131,1771,-2,0,-1,-0.517578,0.063965,0.864746,-0.122070,0.000000,-0.061035,21.47,0
2897396204,24266.173885,1777903097.772300,-1056,129,1775,-2,0,-1,-0.515625,0.062988,0.866699,-0.122070,0.000000,-0.061035,21.45,0
2897397217,24266.173894,1777903097.773312,-1057,129,1772,-2,-1,-1,-0.516113,0.062988,0.865234,-0.122070,-0.061035,-0.061035,21.54,0
2897398228,24266.181880,1777903097.774301,-1061,130,1771,-3,-1,-1,-0.518066,0.063477,0.864746,-0.183105,-0.061035,-0.061035,21.62,0
2897399238,24266.181897,1777903097.775309,-1061,130,1774,-3,-1,-1,-0.518066,0.063477,0.866211,-0.183105,-0.061035,-0.061035,21.47,0
2897400253,24266.181908,1777903097.776323,-1059,130,1772,-2,-1,0,-0.517090,0.063477,0.865234,-0.122070,-0.061035,0.000000,21.53,0
2897401265,24266.181918,1777903097.777334,-1063,130,1769,-2,-1,1,-0.519043,0.063477,0.863770,-0.122070,-0.061035,0.061035,21.56,0
2897402277,24266.181928,1777903097.778345,-1063,132,1773,-2,-1,1,-0.519043,0.064453,0.865723,-0.122070,-0.061035,0.061035,21.50,0
2897403290,24266.181937,1777903097.779357,-1061,129,1774,-2,-1,0,-0.518066,0.062988,0.866211,-0.122070,-0.061035,0.000000,21.63,0
2897404302,24266.181947,1777903097.780368,-1062,129,1772,-3,-2,0,-0.518555,0.062988,0.865234,-0.183105,-0.122070,0.000000,21.44,0
2897405314,24266.181957,1777903097.781379,-1059,133,1774,-2,-2,0,-0.517090,0.064941,0.866211,-0.122070,-0.122070,0.000000,21.60,1
2897406325,24266.190179,1777903097.782390,-1058,128,1776,-3,-1,-1,-0.516602,0.062500,0.867188,-0.183105,-0.061035,-0.061035,21.59,0
2897407338,24266.190196,1777903097.783402,-1060,126,1777,-3,0,-1,-0.517578,0.061523,0.867676,-0.183105,0.000000,-0.061035,21.56,0
2897408351,24266.190202,1777903097.784414,-1060,130,1776,-3,-2,-1,-0.517578,0.063477,0.867188,-0.183105,-0.122070,-0.061035,21.53,0
2897409361,24266.190209,1777903097.785423,-1061,129,1773,-2,-2,0,-0.518066,0.062988,0.865723,-0.122070,-0.122070,0.000000,21.62,0
2897410375,24266.190215,1777903097.786436,-1064,127,1774,-3,-2,0,-0.519531,0.062012,0.866211,-0.183105,-0.122070,0.000000,21.57,0
2897411387,24266.190221,1777903097.787446,-1063,126,1774,-3,-2,0,-0.519043,0.061523,0.866211,-0.183105,-0.122070,0.000000,21.51,0
2897412398,24266.190227,1777903097.788456,-1060,126,1768,-2,-2,0,-0.517578,0.061523,0.863281,-0.122070,-0.122070,0.000000,21.62,0
2897413411,24266.190233,1777903097.789468,-1061,129,1766,-2,-2,0,-0.518066,0.062988,0.862305,-0.122070,-0.122070,0.000000,21.56,0
2897414422,24266.198066,1777903097.790478,-1061,130,1771,-3,-2,0,-0.518066,0.063477,0.864746,-0.183105,-0.122070,0.000000,21.53,0
2897415437,24266.198099,1777903097.791492,-1059,128,1772,-3,-3,-1,-0.517090,0.062500,0.865234,-0.183105,-0.183105,-0.061035,21.56,0
2897416450,24266.198107,1777903097.792541,-1060,129,1770,-3,-3,-1,-0.517578,0.062988,0.864258,-0.183105,-0.183105,-0.061035,21.57,1
2897417459,24266.198117,1777903097.793549,-1059,133,1773,-2,-2,-1,-0.517090,0.064941,0.865723,-0.122070,-0.122070,-0.061035,21.44,0
2897418474,24266.198126,1777903097.794564,-1056,132,1775,-1,-2,-1,-0.515625,0.064453,0.866699,-0.061035,-0.122070,-0.061035,21.48,0
2897419484,24266.198134,1777903097.795573,-1058,129,1775,-2,-1,-1,-0.516602,0.062988,0.866699,-0.122070,-0.061035,-0.061035,21.44,0
2897420499,24266.198143,1777903097.796587,-1062,128,1771,-2,-1,0,-0.518555,0.062500,0.864746,-0.122070,-0.061035,0.000000,21.51,0
2897421511,24266.198152,1777903097.797599,-1060,131,1770,-2,-2,-1,-0.517578,0.063965,0.864258,-0.122070,-0.122070,-0.061035,21.50,0
2897422521,24266.206146,1777903097.798609,-1059,133,1774,-3,-2,-1,-0.517090,0.064941,0.866211,-0.183105,-0.122070,-0.061035,21.54,0
2897423534,24266.206162,1777903097.799621,-1061,131,1773,-2,-2,0,-0.518066,0.063965,0.865723,-0.122070,-0.122070,0.000000,21.57,0
2897424548,24266.206169,1777903097.800634,-1060,130,1772,-1,-1,0,-0.517578,0.063477,0.865234,-0.061035,-0.061035,0.000000,21.54,0
2897425559,24266.206175,1777903097.801645,-1061,129,1771,-1,-1,-1,-0.518066,0.062988,0.864746,-0.061035,-0.061035,-0.061035,21.56,0
2897426572,24266.206211,1777903097.802657,-1063,126,1773,-3,-1,-1,-0.519043,0.061523,0.865723,-0.183105,-0.061035,-0.061035,21.47,0
2897427584,24266.206218,1777903097.803669,-1062,127,1775,-3,-1,0,-0.518555,0.062012,0.866699,-0.183105,-0.061035,0.000000,21.57,1
2897428596,24266.206224,1777903097.804680,-1061,130,1774,-2,-1,1,-0.518066,0.063477,0.866211,-0.122070,-0.061035,0.061035,21.53,0
2897429607,24266.206234,1777903097.805691,-1063,131,1772,-2,-1,0,-0.519043,0.063965,0.865234,-0.122070,-0.061035,0.000000,21.50,0
2897430620,24266.214253,1777903097.806668,-1061,129,1767,-3,-1,-1,-0.518066,0.062988,0.862793,-0.183105,-0.061035,-0.061035,21.51,0
2897431632,24266.214277,1777903097.807679,-1059,129,1768,-3,-2,-1,-0.517090,0.062988,0.863281,-0.183105,-0.122070,-0.061035,21.56,0
2897432645,24266.214284,1777903097.808691,-1060,131,1774,-3,-2,-1,-0.517578,0.063965,0.866211,-0.183105,-0.122070,-0.061035,21.54,0
2897433656,24266.214290,1777903097.809701,-1059,130,1777,-1,-1,-1,-0.517090,0.063477,0.867676,-0.061035,-0.061035,-0.061035,21.54,0
2897434669,24266.214296,1777903097.810713,-1058,129,1777,-1,-1,-1,-0.516602,0.062988,0.867676,-0.061035,-0.061035,-0.061035,21.53,0
2897435682,24266.214302,1777903097.811725,-1060,129,1773,-2,-2,-1,-0.517578,0.062988,0.865723,-0.122070,-0.122070,-0.061035,21.50,0
2897436695,24266.214309,1777903097.812737,-1062,128,1771,-3,-2,-1,-0.518555,0.062500,0.864746,-0.183105,-0.122070,-0.061035,21.68,0
2897437705,24266.214315,1777903097.813745,-1061,128,1771,-3,-2,-1,-0.518066,0.062500,0.864746,-0.183105,-0.122070,-0.061035,21.54,0
2897438719,24266.222351,1777903097.814776,-1060,129,1771,-2,-2,-2,-0.517578,0.062988,0.864746,-0.122070,-0.122070,-0.122070,21.56,1
2897439730,24266.222369,1777903097.815786,-1059,127,1772,-2,-2,-1,-0.517090,0.062012,0.865234,-0.122070,-0.122070,-0.061035,21.57,0
2897440744,24266.222379,1777903097.816799,-1058,126,1774,-2,-2,-1,-0.516602,0.061523,0.866211,-0.122070,-0.122070,-0.061035,21.51,0
2897441755,24266.222389,1777903097.817810,-1059,128,1777,-2,-1,0,-0.517090,0.062500,0.867676,-0.122070,-0.061035,0.000000,21.54,0
2897442766,24266.222399,1777903097.818820,-1060,128,1778,-3,-1,0,-0.517578,0.062500,0.868164,-0.183105,-0.061035,0.000000,21.41,0
2897443781,24266.222408,1777903097.819834,-1061,128,1774,-3,-2,-1,-0.518066,0.062500,0.866211,-0.183105,-0.122070,-0.061035,21.57,0
2897444791,24266.222418,1777903097.820843,-1062,127,1772,-3,-1,-2,-0.518555,0.062012,0.865234,-0.183105,-0.061035,-0.122070,21.60,0
2897445803,24266.222428,1777903097.821854,-1057,126,1772,-2,0,-1,-0.516113,0.061523,0.865234,-0.122070,0.000000,-0.061035,21.56,0
2897446816,24266.230449,1777903097.822866,-1056,126,1769,-3,-2,0,-0.515625,0.061523,0.863770,-0.183105,-0.122070,0.000000,21.47,0
2897447830,24266.230468,1777903097.823879,-1060,128,1768,-3,-3,0,-0.517578,0.062500,0.863281,-0.183105,-0.183105,0.000000,21.45,0
2897448841,24266.230478,1777903097.824890,-1061,129,1772,-3,-2,-1,-0.518066,0.062988,0.865234,-0.183105,-0.122070,-0.061035,21.44,0
2897449853,24266.230488,1777903097.825898,-1058,128,1775,-3,-1,-1,-0.516602,0.062500,0.866699,-0.183105,-0.061035,-0.061035,21.53,1
2897450866,24266.230499,1777903097.826910,-1059,129,1775,-2,-1,0,-0.517090,0.062988,0.866699,-0.122070,-0.061035,0.000000,21.66,0
2897451877,24266.230509,1777903097.827920,-1059,129,1774,-2,-2,0,-0.517090,0.062988,0.866211,-0.122070,-0.122070,0.000000,21.47,0
2897452891,24266.230519,1777903097.828933,-1059,128,1773,-1,-1,-1,-0.517090,0.062500,0.865723,-0.061035,-0.061035,-0.061035,21.56,0
2897453903,24266.230529,1777903097.829944,-1063,130,1770,-2,-2,-1,-0.519043,0.063477,0.864258,-0.122070,-0.122070,-0.061035,21.59,0
2897454916,24266.238575,1777903097.830956,-1062,133,1769,-2,-1,0,-0.518555,0.064941,0.863770,-0.122070,-0.061035,0.000000,21.50,0
2897455927,24266.238588,1777903097.831966,-1057,132,1770,-3,-1,0,-0.516113,0.064453,0.864258,-0.183105,-0.061035,0.000000,21.53,0
2897456939,24266.238594,1777903097.832978,-1059,127,1772,-3,-1,0,-0.517090,0.062012,0.865234,-0.183105,-0.061035,0.000000,21.50,0
2897457951,24266.238601,1777903097.833989,-1062,126,1772,-3,-2,-1,-0.518555,0.061523,0.865234,-0.183105,-0.122070,-0.061035,21.62,0
2897458964,24266.238607,1777903097.835001,-1061,126,1772,-3,-2,-1,-0.518066,0.061523,0.865234,-0.183105,-0.122070,-0.061035,21.57,0
2897459975,24266.238613,1777903097.836011,-1060,129,1776,-3,-2,-1,-0.517578,0.062988,0.867188,-0.183105,-0.122070,-0.061035,21.68,0
2897460988,24266.238620,1777903097.837023,-1061,133,1777,-3,-1,-1,-0.518066,0.064941,0.867676,-0.183105,-0.061035,-0.061035,21.48,1
2897462001,24266.238627,1777903097.838035,-1062,133,1777,-2,-2,-1,-0.518555,0.064941,0.867676,-0.122070,-0.122070,-0.061035,21.45,0
2897463014,24266.249969,1777903097.839052,-1061,128,1778,-2,-2,0,-0.518066,0.062500,0.868164,-0.122070,-0.122070,0.000000,21.69,0
2897464025,24266.249985,1777903097.840062,-1060,128,1773,-2,-1,1,-0.517578,0.062500,0.865723,-0.122070,-0.061035,0.061035,21.53,0
2897465036,24266.249992,1777903097.841073,-1060,131,1771,-2,-1,0,-0.517578,0.063965,0.864746,-0.122070,-0.061035,0.000000,21.56,0
2897466048,24266.249999,1777903097.842084,-1060,131,1772,-2,-1,-2,-0.517578,0.063965,0.865234,-0.122070,-0.061035,-0.122070,21.53,0
2897467060,24266.250009,1777903097.843095,-1060,130,1774,-2,-2,-1,-0.517578,0.063477,0.866211,-0.122070,-0.122070,-0.061035,21.63,0
2897468073,24266.250016,1777903097.844107,-1060,127,1774,-3,-2,0,-0.517578,0.062012,0.866211,-0.183105,-0.122070,0.000000,21.45,0
2897469096,24266.250022,1777903097.845129,-1061,126,1770,-3,-1,0,-0.518066,0.061523,0.864258,-0.183105,-0.061035,0.000000,21.50,0
2897470098,24266.250029,1777903097.846130,-1060,129,1768,-2,0,0,-0.517578,0.062988,0.863281,-0.122070,0.000000,0.000000,21.57,0
2897471111,24266.254774,1777903097.847142,-1056,127,1768,-2,-1,-1,-0.515625,0.062012,0.863281,-0.122070,-0.061035,-0.061035,21.63,0
2897472124,24266.254797,1777903097.848153,-1058,125,1771,-2,-2,-2,-0.516602,0.061035,0.864746,-0.122070,-0.122070,-0.122070,21.68,1
2897473136,24266.254808,1777903097.849164,-1059,129,1774,-3,-2,-1,-0.517090,0.062988,0.866211,-0.183105,-0.122070,-0.061035,21.59,0
2897474148,24266.254818,1777903097.850175,-1055,132,1775,-3,-1,-1,-0.515137,0.064453,0.866699,-0.183105,-0.061035,-0.061035,21.53,0
2897475160,24266.254827,1777903097.851187,-1054,130,1775,-3,-2,-1,-0.514648,0.063477,0.866699,-0.183105,-0.122070,-0.061035,21.59,0
2897476173,24266.254836,1777903097.852199,-1058,131,1778,-3,-2,-1,-0.516602,0.063965,0.868164,-0.183105,-0.122070,-0.061035,21.63,0
2897477184,24266.254846,1777903097.853209,-1062,132,1778,-3,-2,-2,-0.518555,0.064453,0.868164,-0.183105,-0.122070,-0.122070,21.50,0
2897478195,24266.254855,1777903097.854219,-1063,130,1773,-3,-1,-1,-0.519043,0.063477,0.865723,-0.183105,-0.061035,-0.061035,21.62,0
2897479210,24266.262853,1777903097.855233,-1060,128,1772,-3,-1,0,-0.517578,0.062500,0.865234,-0.183105,-0.061035,0.000000,21.57,0
2897480222,24266.262869,1777903097.856244,-1059,129,1774,-3,-2,0,-0.517090,0.062988,0.866211,-0.183105,-0.122070,0.000000,21.56,0
2897481235,24266.262876,1777903097.857256,-1059,131,1774,-3,-2,-1,-0.517090,0.063965,0.866211,-0.183105,-0.122070,-0.061035,21.62,0
2897482244,24266.262882,1777903097.858264,-1059,131,1776,-3,-2,-1,-0.517090,0.063965,0.867188,-0.183105,-0.122070,-0.061035,21.56,0
2897483259,24266.262889,1777903097.859278,-1060,129,1775,-4,-3,-1,-0.517578,0.062988,0.866699,-0.244141,-0.183105,-0.061035,21.71,1
2897484270,24266.262896,1777903097.860289,-1059,126,1771,-4,-2,-1,-0.517090,0.061523,0.864746,-0.244141,-0.122070,-0.061035,21.56,0
2897485281,24266.262902,1777903097.861299,-1059,126,1770,-3,-1,-1,-0.517090,0.061523,0.864258,-0.183105,-0.061035,-0.061035,21.56,0
2897486294,24266.262908,1777903097.862311,-1062,129,1772,-2,-2,-1,-0.518555,0.062988,0.865234,-0.122070,-0.122070,-0.061035,21.56,0
2897487307,24266.270961,1777903097.863326,-1062,132,1778,-2,-2,-2,-0.518555,0.064453,0.868164,-0.122070,-0.122070,-0.122070,21.56,0
2897488318,24266.270979,1777903097.864336,-1061,132,1777,-3,-1,-2,-0.518066,0.064453,0.867676,-0.183105,-0.061035,-0.122070,21.72,0
2897489332,24266.271027,1777903097.865349,-1061,129,1771,-3,-2,-1,-0.518066,0.062988,0.864746,-0.183105,-0.122070,-0.061035,21.54,0
2897490342,24266.271034,1777903097.866358,-1060,128,1771,-3,-3,-1,-0.517578,0.062500,0.864746,-0.183105,-0.183105,-0.061035,21.47,0
2897491357,24266.271040,1777903097.867373,-1060,128,1775,-2,-2,-1,-0.517578,0.062500,0.866699,-0.122070,-0.122070,-0.061035,21.53,0
2897492367,24266.271047,1777903097.868382,-1061,131,1775,-2,-1,-1,-0.518066,0.063965,0.866699,-0.122070,-0.061035,-0.061035,21.44,0
2897493380,24266.271053,1777903097.869394,-1059,132,1776,-2,-2,0,-0.517090,0.064453,0.867188,-0.122070,-0.122070,0.000000,21.54,0
2897494394,24266.271059,1777903097.870407,-1060,129,1775,-2,-2,0,-0.517578,0.062988,0.866699,-0.122070,-0.122070,0.000000,21.59,1
2897495405,24266.279044,1777903097.871422,-1064,128,1772,-2,-1,-1,-0.519531,0.062500,0.865234,-0.122070,-0.061035,-0.061035,21.51,0
2897496417,24266.279060,1777903097.872434,-1065,130,1772,-3,-1,-2,-0.520020,0.063477,0.865234,-0.183105,-0.061035,-0.122070,21.57,0
2897497428,24266.279067,1777903097.873444,-1060,129,1775,-3,-2,-2,-0.517578,0.062988,0.866699,-0.183105,-0.122070,-0.122070,21.63,0
2897498443,24266.279073,1777903097.874458,-1059,129,1775,-2,-2,-2,-0.517090,0.062988,0.866699,-0.122070,-0.122070,-0.122070,21.47,0
2897499454,24266.279079,1777903097.875468,-1060,131,1772,-2,-3,-2,-0.517578,0.063965,0.865234,-0.122070,-0.183105,-0.122070,21.53,0
2897500468,24266.279086,1777903097.876481,-1061,131,1772,-2,-2,-2,-0.518066,0.063965,0.865234,-0.122070,-0.122070,-0.122070,21.38,0
2897501480,24266.279092,1777903097.877493,-1062,130,1769,-3,-1,-1,-0.518555,0.063477,0.863770,-0.183105,-0.061035,-0.061035,21.54,0
2897502492,24266.279098,1777903097.878504,-1061,129,1769,-3,-1,-1,-0.518066,0.062988,0.863770,-0.183105,-0.061035,-0.061035,21.56,0
2897503503,24266.287211,1777903097.879514,-1059,129,1774,-3,-2,-1,-0.517090,0.062988,0.866211,-0.183105,-0.122070,-0.061035,21.56,0
2897504516,24266.287233,1777903097.880526,-1056,129,1773,-2,-2,-1,-0.515625,0.062988,0.865723,-0.122070,-0.122070,-0.061035,21.54,0
2897505529,24266.287244,1777903097.881546,-1056,129,1770,-3,-1,0,-0.515625,0.062988,0.864258,-0.183105,-0.061035,0.000000,21.56,1
2897506539,24266.287254,1777903097.882555,-1059,131,1771,-3,-1,-1,-0.517090,0.063965,0.864746,-0.183105,-0.061035,-0.061035,21.57,0
2897507553,24266.287264,1777903097.883568,-1059,129,1773,-2,-1,-2,-0.517090,0.062988,0.865723,-0.122070,-0.061035,-0.122070,21.59,0
2897508566,24266.287275,1777903097.884581,-1059,130,1774,-2,0,-1,-0.517090,0.063477,0.866211,-0.122070,0.000000,-0.061035,21.51,0
2897509578,24266.287283,1777903097.885592,-1061,133,1775,-3,-1,0,-0.518066,0.064941,0.866699,-0.183105,-0.061035,0.000000,21.47,0
2897510588,24266.287292,1777903097.886601,-1063,132,1775,-3,-1,-1,-0.519043,0.064453,0.866699,-0.183105,-0.061035,-0.061035,21.54,0
2897511601,24266.295237,1777903097.887613,-1064,131,1774,-3,-2,0,-0.519531,0.063965,0.866211,-0.183105,-0.122070,0.000000,21.41,0
2897512615,24266.295253,1777903097.888627,-1059,130,1772,-2,-1,1,-0.517090,0.063477,0.865234,-0.122070,-0.061035,0.061035,21.48,0
2897513625,24266.295260,1777903097.889636,-1056,129,1772,-2,-1,0,-0.515625,0.062988,0.865234,-0.122070,-0.061035,0.000000,21.56,0
2897514637,24266.295267,1777903097.890647,-1059,131,1774,-2,-1,0,-0.517090,0.063965,0.866211,-0.122070,-0.061035,0.000000,21.53,0
2897515649,24266.295273,1777903097.891658,-1061,130,1772,-3,-1,-1,-0.518066,0.063477,0.865234,-0.183105,-0.061035,-0.061035,21.56,0
2897516661,24266.295281,1777903097.892670,-1059,130,1769,-3,-1,-1,-0.517090,0.063477,0.863770,-0.183105,-0.061035,-0.061035,21.51,1
2897517675,24266.295291,1777903097.893683,-1060,130,1772,-2,-1,-1,-0.517578,0.063477,0.865234,-0.122070,-0.061035,-0.061035,21.53,0
2897518688,24266.295301,1777903097.894695,-1062,134,1775,-2,-1,-2,-0.518555,0.065430,0.866699,-0.122070,-0.061035,-0.122070,21.50,0
2897519700,24266.303315,1777903097.895709,-1062,135,1773,-1,0,-2,-0.518555,0.065918,0.865723,-0.061035,0.000000,-0.122070,21.53,0
2897520711,24266.303333,1777903097.896719,-1061,128,1769,-2,-1,-1,-0.518066,0.062500,0.863770,-0.122070,-0.061035,-0.061035,21.56,0
2897521723,24266.303344,1777903097.897730,-1060,128,1769,-3,-1,0,-0.517578,0.062500,0.863770,-0.183105,-0.061035,0.000000,21.68,0
2897522736,24266.303354,1777903097.898743,-1061,129,1773,-1,-1,-1,-0.518066,0.062988,0.865723,-0.061035,-0.061035,-0.061035,21.59,0
2897523748,24266.303364,1777903097.899754,-1061,127,1774,-2,-2,-2,-0.518066,0.062012,0.866211,-0.122070,-0.122070,-0.122070,21.53,0
2897524761,24266.303374,1777903097.900766,-1059,128,1772,-3,-2,-1,-0.517090,0.062500,0.865234,-0.183105,-0.122070,-0.061035,21.59,0
2897525774,24266.303384,1777903097.901778,-1057,127,1771,-3,-2,-1,-0.516113,0.062012,0.864746,-0.183105,-0.122070,-0.061035,21.59,0
2897526786,24266.303394,1777903097.902790,-1059,126,1770,-1,-2,-2,-0.517090,0.061523,0.864258,-0.061035,-0.122070,-0.122070,21.51,0
2897527797,24266.311426,1777903097.903793,-1061,128,1774,-2,-2,-2,-0.518066,0.062500,0.866211,-0.122070,-0.122070,-0.122070,21.59,1
2897528808,24266.311439,1777903097.904804,-1059,129,1778,-2,-2,-1,-0.517090,0.062988,0.868164,-0.122070,-0.122070,-0.061035,21.56,0
2897529821,24266.311447,1777903097.905816,-1058,129,1775,-2,-2,0,-0.516602,0.062988,0.866699,-0.122070,-0.122070,0.000000,21.51,0
2897530835,24266.311453,1777903097.906829,-1059,129,1771,-1,-3,0,-0.517090,0.062988,0.864746,-0.061035,-0.183105,0.000000,21.51,0
2897531847,24266.311460,1777903097.907840,-1061,128,1770,-2,-2,0,-0.518066,0.062500,0.864258,-0.122070,-0.122070,0.000000,21.47,0
2897532860,24266.311466,1777903097.908852,-1061,126,1769,-2,-1,0,-0.518066,0.061523,0.863770,-0.122070,-0.061035,0.000000,21.38,0
2897533872,24266.311473,1777903097.909863,-1058,125,1770,-2,-1,1,-0.516602,0.061035,0.864258,-0.122070,-0.061035,0.061035,21.51,0
2897534882,24266.311479,1777903097.910873,-1059,127,1773,-2,-2,0,-0.517090,0.062012,0.865723,-0.122070,-0.122070,0.000000,21.60,0
2897535895,24266.319537,1777903097.911885,-1058,128,1772,-3,-2,0,-0.516602,0.062500,0.865234,-0.183105,-0.122070,0.000000,21.51,0
2897536909,24266.319556,1777903097.912898,-1057,128,1769,-2,-2,0,-0.516113,0.062500,0.863770,-0.122070,-0.122070,0.000000,21.51,0
2897537919,24266.319567,1777903097.913908,-1060,129,1771,-1,-1,0,-0.517578,0.062988,0.864746,-0.061035,-0.061035,0.000000,21.56,0
2897538931,24266.319577,1777903097.914921,-1059,130,1772,-1,-1,0,-0.517090,0.063477,0.865234,-0.061035,-0.061035,0.000000,21.54,1
2897539946,24266.319588,1777903097.915936,-1059,132,1772,-1,-1,-1,-0.517090,0.064453,0.865234,-0.061035,-0.061035,-0.061035,21.51,0
2897540958,24266.319598,1777903097.916947,-1062,131,1773,-2,-1,-1,-0.518555,0.063965,0.865723,-0.122070,-0.061035,-0.061035,21.62,0
2897541968,24266.319607,1777903097.917956,-1061,127,1773,-2,-1,-1,-0.518066,0.062012,0.865723,-0.122070,-0.061035,-0.061035,21.59,0
2897542982,24266.319617,1777903097.918969,-1059,127,1772,-2,-1,-1,-0.517090,0.062012,0.865234,-0.122070,-0.061035,-0.061035,21.56,0
2897543994,24266.327636,1777903097.919981,-1059,130,1772,-3,-1,-1,-0.517090,0.063477,0.865234,-0.183105,-0.061035,-0.061035,21.57,0
2897545005,24266.327648,1777903097.920991,-1059,129,1772,-3,-3,-1,-0.517090,0.062988,0.865234,-0.183105,-0.183105,-0.061035,21.78,0
2897546017,24266.327655,1777903097.922002,-1059,127,1773,-2,-3,0,-0.517090,0.062012,0.865723,-0.122070,-0.183105,0.000000,21.56,0
2897547032,24266.327661,1777903097.923016,-1058,129,1775,-2,-3,0,-0.516602,0.062988,0.866699,-0.122070,-0.183105,0.000000,21.51,0
2897548043,24266.327668,1777903097.924026,-1057,131,1775,-3,-2,-1,-0.516113,0.063965,0.866699,-0.183105,-0.122070,-0.061035,21.47,0
2897549054,24266.327674,1777903097.925037,-1059,130,1774,-3,0,-1,-0.517090,0.063477,0.866211,-0.183105,0.000000,-0.061035,21.60,0
2897550066,24266.327680,1777903097.926048,-1061,130,1772,-2,-1,-1,-0.518066,0.063477,0.865234,-0.122070,-0.061035,-0.061035,21.65,1
2897551079,24266.327687,1777903097.927060,-1060,131,1773,-2,-2,-1,-0.517578,0.063965,0.865723,-0.122070,-0.122070,-0.061035,21.45,0
2897552097,24266.335712,1777903097.928083,-1058,132,1773,-3,-1,-2,-0.516602,0.064453,0.865723,-0.183105,-0.061035,-0.122070,21.51,0
2897553105,24266.335756,1777903097.929090,-1061,131,1770,-3,-1,-1,-0.518066,0.063965,0.864258,-0.183105,-0.061035,-0.061035,21.50,0
2897554115,24266.335763,1777903097.930099,-1061,131,1770,-2,-1,0,-0.518066,0.063965,0.864258,-0.122070,-0.061035,0.000000,21.47,0
2897555129,24266.335769,1777903097.931113,-1057,131,1773,-2,-1,0,-0.516113,0.063965,0.865723,-0.122070,-0.061035,0.000000,21.47,0
2897556140,24266.335775,1777903097.932123,-1056,129,1772,-3,-1,-1,-0.515625,0.062988,0.865234,-0.183105,-0.061035,-0.061035,21.53,0
2897557154,24266.335781,1777903097.933136,-1057,131,1771,-4,-2,-2,-0.516113,0.063965,0.864746,-0.244141,-0.122070,-0.122070,21.56,0
2897558165,24266.335788,1777903097.934146,-1058,134,1773,-4,-2,-2,-0.516602,0.065430,0.865723,-0.244141,-0.122070,-0.122070,21.47,0
2897559177,24266.335794,1777903097.935158,-1060,134,1770,-3,-2,-1,-0.517578,0.065430,0.864258,-0.183105,-0.122070,-0.061035,21.56,0
2897560191,24266.343854,1777903097.936171,-1061,130,1764,-3,-1,-1,-0.518066,0.063477,0.861328,-0.183105,-0.061035,-0.061035,21.53,0
2897561202,24266.343874,1777903097.937184,-1059,127,1769,-3,-1,-1,-0.517090,0.062012,0.863770,-0.183105,-0.061035,-0.061035,21.51,1
2897562215,24266.343885,1777903097.938196,-1059,127,1778,-1,-2,-1,-0.517090,0.062012,0.868164,-0.061035,-0.122070,-0.061035,21.51,0
2897563225,24266.343895,1777903097.939206,-1062,128,1776,-1,-3,0,-0.518555,0.062500,0.867188,-0.061035,-0.183105,0.000000,21.47,0
2897564240,24266.343905,1777903097.940220,-1063,129,1770,-2,-2,0,-0.519043,0.062988,0.864258,-0.122070,-0.122070,0.000000,21.51,0
2897565250,24266.343914,1777903097.941229,-1060,128,1771,-2,0,-1,-0.517578,0.062500,0.864746,-0.122070,0.000000,-0.061035,21.62,0
2897566264,24266.343924,1777903097.942243,-1058,129,1773,-2,0,-1,-0.516602,0.062988,0.865723,-0.122070,0.000000,-0.061035,21.45,0
2897567277,24266.343934,1777903097.943255,-1060,129,1770,-2,-1,0,-0.517578,0.062988,0.864258,-0.122070,-0.061035,0.000000,21.47,0
2897568287,24266.351973,1777903097.944264,-1060,128,1769,-3,-2,0,-0.517578,0.062500,0.863770,-0.183105,-0.122070,0.000000,21.59,0
2897569301,24266.351986,1777903097.945278,-1057,128,1772,-3,-1,-1,-0.516113,0.062500,0.865234,-0.183105,-0.061035,-0.061035,21.62,0
2897570311,24266.351992,1777903097.946287,-1058,129,1770,-2,-1,-1,-0.516602,0.062988,0.864258,-0.122070,-0.061035,-0.061035,21.60,0
2897571326,24266.352000,1777903097.947301,-1061,131,1768,-2,-2,-1,-0.518066,0.063965,0.863281,-0.122070,-0.122070,-0.061035,21.62,0
2897572336,24266.352017,1777903097.948311,-1057,133,1772,-2,-3,0,-0.516113,0.064941,0.865234,-0.122070,-0.183105,0.000000,21.53,1
2897573351,24266.352027,1777903097.949325,-1057,131,1774,-3,-3,0,-0.516113,0.063965,0.866211,-0.183105,-0.183105,0.000000,21.62,0
2897574362,24266.352033,1777903097.950335,-1061,130,1771,-3,-2,-2,-0.518066,0.063477,0.864746,-0.183105,-0.122070,-0.122070,21.63,0
2897575374,24266.352040,1777903097.951346,-1060,127,1773,-3,-2,-2,-0.517578,0.062012,0.865723,-0.183105,-0.122070,-0.122070,21.59,0
2897576387,24266.360012,1777903097.952354,-1057,124,1776,-2,-2,0,-0.516113,0.060547,0.867188,-0.122070,-0.122070,0.000000,21.53,0
2897577399,24266.360022,1777903097.953366,-1060,125,1775,-3,-2,1,-0.517578,0.061035,0.866699,-0.183105,-0.122070,0.061035,21.56,0
2897578412,24266.360028,1777903097.954378,-1065,130,1776,-4,-1,-1,-0.520020,0.063477,0.867188,-0.244141,-0.061035,-0.061035,21.53,0
2897579423,24266.360034,1777903097.955388,-1064,131,1775,-3,-1,-2,-0.519531,0.063965,0.866699,-0.183105,-0.061035,-0.122070,21.51,0
2897580436,24266.360041,1777903097.956401,-1062,132,1773,-2,-1,-1,-0.518555,0.064453,0.865723,-0.122070,-0.061035,-0.061035,21.53,0
2897581448,24266.360047,1777903097.957412,-1061,132,1773,-2,-1,0,-0.518066,0.064453,0.865723,-0.122070,-0.061035,0.000000,21.50,0
2897582460,24266.360053,1777903097.958423,-1059,129,1774,-2,-1,0,-0.517090,0.062988,0.866211,-0.122070,-0.061035,0.000000,21.51,0
2897583471,24266.360059,1777903097.959433,-1059,129,1775,-2,-2,-1,-0.517090,0.062988,0.866699,-0.122070,-0.122070,-0.061035,21.51,1
2897584486,24266.368109,1777903097.960449,-1062,129,1776,-2,-1,0,-0.518555,0.062988,0.867188,-0.122070,-0.061035,0.000000,21.56,0
2897585498,24266.368119,1777903097.961460,-1060,128,1776,-2,-1,0,-0.517578,0.062500,0.867188,-0.122070,-0.061035,0.000000,21.44,0
2897586508,24266.368125,1777903097.962469,-1055,127,1777,-3,-1,-1,-0.515137,0.062012,0.867676,-0.183105,-0.061035,-0.061035,21.53,0
2897587520,24266.368131,1777903097.963480,-1057,128,1775,-3,-2,-1,-0.516113,0.062500,0.866699,-0.183105,-0.122070,-0.061035,21.53,0
2897588535,24266.368138,1777903097.964495,-1062,130,1771,-2,-1,-1,-0.518555,0.063477,0.864746,-0.122070,-0.061035,-0.061035,21.50,0
2897589545,24266.368144,1777903097.965504,-1060,131,1772,-1,-2,0,-0.517578,0.063965,0.865234,-0.061035,-0.122070,0.000000,21.56,0
2897590560,24266.368150,1777903097.966518,-1059,128,1774,0,-2,0,-0.517090,0.062500,0.866211,0.000000,-0.122070,0.000000,21.44,0
2897591569,24266.368156,1777903097.967527,-1061,126,1774,-1,-2,-1,-0.518066,0.061523,0.866211,-0.061035,-0.122070,-0.061035,21.53,0
2897592583,24266.376209,1777903097.968540,-1062,130,1773,-3,-2,-1,-0.518555,0.063477,0.865723,-0.183105,-0.122070,-0.061035,21.57,0
2897593593,24266.376223,1777903097.969549,-1061,131,1772,-3,-2,0,-0.518066,0.063965,0.865234,-0.183105,-0.122070,0.000000,21.56,0
2897594606,24266.376232,1777903097.970561,-1060,132,1772,-3,-2,0,-0.517578,0.064453,0.865234,-0.183105,-0.122070,0.000000,21.45,1
2897595620,24266.376242,1777903097.971575,-1060,133,1773,-3,-2,-1,-0.517578,0.064941,0.865723,-0.183105,-0.122070,-0.061035,21.51,0
2897596632,24266.376252,1777903097.972586,-1058,131,1773,-2,-1,-1,-0.516602,0.063965,0.865723,-0.122070,-0.061035,-0.061035,21.42,0
2897597644,24266.376262,1777903097.973597,-1057,131,1776,-2,-1,-1,-0.516113,0.063965,0.867188,-0.122070,-0.061035,-0.061035,21.53,0
2897598655,24266.376271,1777903097.974607,-1059,129,1775,-2,-1,-2,-0.517090,0.062988,0.866699,-0.122070,-0.061035,-0.122070,21.54,0
2897599668,24266.376281,1777903097.975620,-1059,127,1772,-2,-1,-1,-0.517090,0.062012,0.865234,-0.122070,-0.061035,-0.061035,21.56,0
2897600679,24266.384337,1777903097.976630,-1057,129,1773,-2,-1,-1,-0.516113,0.062988,0.865723,-0.122070,-0.061035,-0.061035,21.56,0
2897601694,24266.384351,1777903097.977644,-1059,130,1774,-2,-1,0,-0.517090,0.063477,0.866211,-0.122070,-0.061035,0.000000,21.56,0
2897602704,24266.384358,1777903097.978653,-1062,129,1773,-2,-1,0,-0.518555,0.062988,0.865723,-0.122070,-0.061035,0.000000,21.50,0
2897603718,24266.384364,1777903097.979667,-1059,131,1773,-2,-1,1,-0.517090,0.063965,0.865723,-0.122070,-0.061035,0.061035,21.56,0
2897604728,24266.384370,1777903097.980676,-1057,130,1773,-2,-2,1,-0.516113,0.063477,0.865723,-0.122070,-0.122070,0.061035,21.53,0
2897605741,24266.384377,1777903097.981688,-1058,126,1774,-2,-1,0,-0.516602,0.061523,0.866211,-0.122070,-0.061035,0.000000,21.48,1
2897606755,24266.384383,1777903097.982702,-1059,128,1775,-2,-1,0,-0.517090,0.062500,0.866699,-0.122070,-0.061035,0.000000,21.50,0
2897607765,24266.384389,1777903097.983711,-1060,133,1771,-2,-1,0,-0.517578,0.064941,0.864746,-0.122070,-0.061035,0.000000,21.56,0
2897608778,24266.392383,1777903097.984724,-1058,133,1773,-2,-2,0,-0.516602,0.064941,0.865723,-0.122070,-0.122070,0.000000,21.47,0
2897609791,24266.392393,1777903097.985736,-1061,129,1776,-3,-2,0,-0.518066,0.062988,0.867188,-0.183105,-0.122070,0.000000,21.51,0
2897610805,24266.392400,1777903097.986749,-1064,127,1776,-2,-1,0,-0.519531,0.062012,0.867188,-0.122070,-0.061035,0.000000,21.47,0
2897611817,24266.392406,1777903097.987761,-1062,129,1775,-1,-2,0,-0.518555,0.062988,0.866699,-0.061035,-0.122070,0.000000,21.50,0
2897612828,24266.392413,1777903097.988771,-1061,128,1773,-2,-2,-2,-0.518066,0.062500,0.865723,-0.122070,-0.122070,-0.122070,21.51,0
2897613839,24266.392419,1777903097.989781,-1060,127,1770,-2,-2,-2,-0.517578,0.062012,0.864258,-0.122070,-0.122070,-0.122070,21.51,0
2897614852,24266.392426,1777903097.990793,-1059,130,1770,-2,-1,-1,-0.517090,0.063477,0.864258,-0.122070,-0.061035,-0.061035,21.44,0
2897615866,24266.392468,1777903097.991807,-1061,130,1774,-2,-1,0,-0.518066,0.063477,0.866211,-0.122070,-0.061035,0.000000,21.56,0
2897616877,24266.400500,1777903097.992821,-1062,129,1777,-2,-2,-1,-0.518555,0.062988,0.867676,-0.122070,-0.122070,-0.061035,21.48,1
2897617889,24266.400516,1777903097.993832,-1059,130,1774,-2,-2,-2,-0.517090,0.063477,0.866211,-0.122070,-0.122070,-0.122070,21.53,0
2897618902,24266.400523,1777903097.994844,-1058,129,1772,-2,-2,-2,-0.516602,0.062988,0.865234,-0.122070,-0.122070,-0.122070,21.53,0
2897619912,24266.400529,1777903097.995854,-1059,129,1772,-2,-2,-1,-0.517090,0.062988,0.865234,-0.122070,-0.122070,-0.061035,21.51,0
2897620926,24266.400536,1777903097.996867,-1060,133,1769,-2,-1,-1,-0.517578,0.064941,0.863770,-0.122070,-0.061035,-0.061035,21.51,0
2897621938,24266.400542,1777903097.997878,-1061,132,1770,-2,-2,-1,-0.518066,0.064453,0.864258,-0.122070,-0.122070,-0.061035,21.59,0
2897622949,24266.400548,1777903097.998888,-1060,128,1773,-2,-2,-1,-0.517578,0.062500,0.865723,-0.122070,-0.122070,-0.061035,21.53,0
2897623963,24266.400555,1777903097.999902,-1057,127,1772,-3,-2,-1,-0.516113,0.062012,0.865234,-0.183105,-0.122070,-0.061035,21.47,0
2897624975,24266.408604,1777903098.000913,-1058,130,1774,-3,-2,0,-0.516602,0.063477,0.866211,-0.183105,-0.122070,0.000000,21.54,0
2897625986,24266.408624,1777903098.001924,-1060,128,1777,-3,-2,0,-0.517578,0.062500,0.867676,-0.183105,-0.122070,0.000000,21.56,0
2897626999,24266.408635,1777903098.002936,-1059,127,1774,-3,-2,0,-0.517090,0.062012,0.866211,-0.183105,-0.122070,0.000000,21.56,0
2897628011,24266.408645,1777903098.003945,-1060,128,1773,-3,-2,0,-0.517578,0.062500,0.865723,-0.183105,-0.122070,0.000000,21.62,1
2897629025,24266.408656,1777903098.004958,-1063,130,1773,-2,-2,-1,-0.519043,0.063477,0.865723,-0.122070,-0.122070,-0.061035,21.53,0
2897630036,24266.408667,1777903098.005969,-1064,129,1771,-1,-1,-3,-0.519531,0.062988,0.864746,-0.061035,-0.061035,-0.183105,21.56,0
2897631049,24266.408678,1777903098.006981,-1060,126,1771,-2,-1,-2,-0.517578,0.061523,0.864746,-0.122070,-0.061035,-0.122070,21.56,0
2897632060,24266.408684,1777903098.007991,-1057,128,1771,-2,-2,-1,-0.516113,0.062500,0.864746,-0.122070,-0.122070,-0.061035,21.47,0
2897633072,24266.416677,1777903098.009002,-1059,128,1772,-1,-2,-1,-0.517090,0.062500,0.865234,-0.061035,-0.122070,-0.061035,21.53,0
2897634095,24266.416691,1777903098.010025,-1060,125,1775,-1,-1,-2,-0.517578,0.061035,0.866699,-0.061035,-0.061035,-0.122070,21.53,0
2897635102,24266.416698,1777903098.011031,-1058,125,1776,-2,0,-1,-0.516602,0.061035,0.867188,-0.122070,0.000000,-0.061035,21.51,0
2897636111,24266.416705,1777903098.012039,-1058,127,1773,-3,-1,-1,-0.516602,0.062012,0.865723,-0.183105,-0.061035,-0.061035,21.59,0
2897637122,24266.416711,1777903098.013050,-1059,129,1771,-2,-2,-1,-0.517090,0.062988,0.864746,-0.122070,-0.122070,-0.061035,21.53,0
2897638133,24266.416718,1777903098.014060,-1060,129,1771,-2,-2,0,-0.517578,0.062988,0.864746,-0.122070,-0.122070,0.000000,21.51,0
2897639147,24266.416724,1777903098.015073,-1061,127,1769,-2,-2,0,-0.518066,0.062012,0.863770,-0.122070,-0.122070,0.000000,21.47,1
2897640160,24266.416732,1777903098.016085,-1060,131,1768,-3,-1,0,-0.517578,0.063965,0.863281,-0.183105,-0.061035,0.000000,21.51,0
2897641170,24266.424783,1777903098.017095,-1057,134,1771,-3,-1,-1,-0.516113,0.065430,0.864746,-0.183105,-0.061035,-0.061035,21.53,0
2897642184,24266.424797,1777903098.018108,-1058,131,1772,-3,-2,-1,-0.516602,0.063965,0.865234,-0.183105,-0.122070,-0.061035,21.56,0
2897643195,24266.424804,1777903098.019119,-1060,129,1772,-2,-1,0,-0.517578,0.062988,0.865234,-0.122070,-0.061035,0.000000,21.56,0
2897644208,24266.424811,1777903098.020131,-1059,128,1772,-2,-2,0,-0.517090,0.062500,0.865234,-0.122070,-0.122070,0.000000,21.44,0
2897645219,24266.424818,1777903098.021141,-1057,130,1771,-1,-2,-1,-0.516113,0.063477,0.864746,-0.061035,-0.122070,-0.061035,21.44,0
2897646233,24266.424824,1777903098.022154,-1058,134,1770,-3,-2,-1,-0.516602,0.065430,0.864258,-0.183105,-0.122070,-0.061035,21.50,0
2897647245,24266.424831,1777903098.023165,-1060,134,1773,-3,-2,-1,-0.517578,0.065430,0.865723,-0.183105,-0.122070,-0.061035,21.59,0
2897648256,24266.424837,1777903098.024176,-1059,130,1774,-2,-2,-1,-0.517090,0.063477,0.866211,-0.122070,-0.122070,-0.061035,21.54,0
2897649270,24266.432966,1777903098.025189,-1057,126,1770,-2,-2,-1,-0.516113,0.061523,0.864258,-0.122070,-0.122070,-0.061035,21.50,0
2897650282,24266.432984,1777903098.026204,-1059,126,1771,-2,-1,-1,-0.517090,0.061523,0.864746,-0.122070,-0.061035,-0.061035,21.53,1
2897651293,24266.432996,1777903098.027215,-1060,130,1773,-3,-1,-1,-0.517578,0.063477,0.865723,-0.183105,-0.061035,-0.061035,21.44,0
2897652307,24266.433011,1777903098.028228,-1059,131,1773,-3,-2,-1,-0.517090,0.063965,0.865723,-0.183105,-0.122070,-0.061035,21.53,0
2897653317,24266.433021,1777903098.029237,-1060,131,1774,-2,-2,0,-0.517578,0.063965,0.866211,-0.122070,-0.122070,0.000000,21.71,0
2897654330,24266.433031,1777903098.030249,-1059,131,1773,-2,-1,-1,-0.517090,0.063965,0.865723,-0.122070,-0.061035,-0.061035,21.51,0
2897655343,24266.433042,1777903098.031262,-1057,126,1773,-3,-1,-2,-0.516113,0.061523,0.865723,-0.183105,-0.061035,-0.122070,21.47,0
2897656354,24266.433051,1777903098.032272,-1060,125,1775,-3,-1,-1,-0.517578,0.061035,0.866699,-0.183105,-0.061035,-0.061035,21.54,0
2897657367,24266.441022,1777903098.033284,-1061,128,1775,-2,-2,0,-0.518066,0.062500,0.866699,-0.122070,-0.122070,0.000000,21.53,0
2897658379,24266.441041,1777903098.034296,-1059,130,1771,-2,-2,-1,-0.517090,0.063477,0.864746,-0.122070,-0.122070,-0.061035,21.56,0
2897659393,24266.441048,1777903098.035309,-1058,131,1769,-3,-1,-1,-0.516602,0.063965,0.863770,-0.183105,-0.061035,-0.061035,21.53,0
2897660403,24266.441055,1777903098.036318,-1058,131,1773,-3,-1,-1,-0.516602,0.063965,0.865723,-0.183105,-0.061035,-0.061035,21.56,0
2897661417,24266.441061,1777903098.037332,-1059,128,1777,-3,-1,-1,-0.517090,0.062500,0.867676,-0.183105,-0.061035,-0.061035,21.57,1
2897662429,24266.441069,1777903098.038343,-1060,127,1777,-3,-1,-1,-0.517578,0.062012,0.867676,-0.183105,-0.061035,-0.061035,21.44,0
2897663442,24266.441075,1777903098.039355,-1060,128,1777,-3,-2,-1,-0.517578,0.062500,0.867676,-0.183105,-0.122070,-0.061035,21.48,0
2897664454,24266.441082,1777903098.040366,-1060,130,1775,-2,-2,0,-0.517578,0.063477,0.866699,-0.122070,-0.122070,0.000000,21.60,0
2897665465,24266.449092,1777903098.041381,-1063,129,1771,-2,-2,-1,-0.519043,0.062988,0.864746,-0.122070,-0.122070,-0.061035,21.47,0
2897666479,24266.449108,1777903098.042394,-1061,130,1769,-2,-2,-1,-0.518066,0.063477,0.863770,-0.122070,-0.122070,-0.061035,21.44,0
2897667491,24266.449115,1777903098.043406,-1057,130,1771,-2,-2,-1,-0.516113,0.063477,0.864746,-0.122070,-0.122070,-0.061035,21.51,0
2897668503,24266.449121,1777903098.044417,-1056,130,1772,-2,-1,-1,-0.515625,0.063477,0.865234,-0.122070,-0.061035,-0.061035,21.45,0
2897669516,24266.449128,1777903098.045429,-1058,133,1769,-3,-1,-1,-0.516602,0.064941,0.863770,-0.183105,-0.061035,-0.061035,21.50,0
2897670528,24266.449134,1777903098.046441,-1059,132,1770,-2,-1,-2,-0.517090,0.064453,0.864258,-0.122070,-0.061035,-0.122070,21.59,0
2897671540,24266.449141,1777903098.047452,-1057,128,1774,-1,-1,-1,-0.516113,0.062500,0.866211,-0.061035,-0.061035,-0.061035,21.53,0
2897672551,24266.449147,1777903098.048462,-1057,130,1775,-1,-1,-1,-0.516113,0.063477,0.866699,-0.061035,-0.061035,-0.061035,21.54,1
2897673563,24266.457190,1777903098.049467,-1058,129,1773,-2,-2,-2,-0.516602,0.062988,0.865723,-0.122070,-0.122070,-0.122070,21.51,0
2897674577,24266.457205,1777903098.050480,-1059,126,1772,-3,-2,-1,-0.517090,0.061523,0.865234,-0.183105,-0.122070,-0.061035,21.53,0
2897675587,24266.457212,1777903098.051489,-1059,127,1772,-2,-2,-1,-0.517090,0.062012,0.865234,-0.122070,-0.122070,-0.061035,21.53,0
2897676601,24266.457218,1777903098.052503,-1059,130,1769,-3,-1,-1,-0.517090,0.063477,0.863770,-0.183105,-0.061035,-0.061035,21.45,0
2897677612,24266.457224,1777903098.053513,-1062,130,1769,-3,-1,-1,-0.518555,0.063477,0.863770,-0.183105,-0.061035,-0.061035,21.69,0
2897678626,24266.457256,1777903098.054526,-1062,132,1773,-3,-1,-1,-0.518555,0.064453,0.865723,-0.183105,-0.061035,-0.061035,21.53,0
2897679638,24266.457284,1777903098.055538,-1061,129,1773,-2,-1,-1,-0.518066,0.062988,0.865723,-0.122070,-0.061035,-0.061035,21.68,0
2897680650,24266.457291,1777903098.056549,-1059,126,1773,-3,-2,-1,-0.517090,0.061523,0.865723,-0.183105,-0.122070,-0.061035,21.66,0
2897681663,24266.465291,1777903098.057561,-1057,131,1775,-3,-3,-1,-0.516113,0.063965,0.866699,-0.183105,-0.183105,-0.061035,21.56,0
2897682675,24266.465305,1777903098.058573,-1058,131,1774,-2,-2,-1,-0.516602,0.063965,0.866211,-0.122070,-0.122070,-0.061035,21.54,0
2897683686,24266.465315,1777903098.059585,-1062,127,1775,-3,-1,-1,-0.518555,0.062012,0.866699,-0.183105,-0.061035,-0.061035,21.56,1
2897684697,24266.465326,1777903098.060596,-1062,128,1774,-5,-1,-1,-0.518555,0.062500,0.866211,-0.305176,-0.061035,-0.061035,21.71,0
2897685711,24266.465335,1777903098.061609,-1060,130,1772,-4,-2,0,-0.517578,0.063477,0.865234,-0.244141,-0.122070,0.000000,21.57,0
2897686722,24266.465346,1777903098.062619,-1061,133,1770,-3,-1,-1,-0.518066,0.064941,0.864258,-0.183105,-0.061035,-0.061035,21.51,0
2897687735,24266.465356,1777903098.063632,-1064,133,1771,-3,-1,-2,-0.519531,0.064941,0.864746,-0.183105,-0.061035,-0.122070,21.53,0
2897688749,24266.465365,1777903098.064645,-1063,129,1773,-3,-1,-1,-0.519043,0.062988,0.865723,-0.183105,-0.061035,-0.061035,21.47,0
2897689759,24266.473381,1777903098.065654,-1059,130,1768,-3,-2,-1,-0.517090,0.063477,0.863281,-0.183105,-0.122070,-0.061035,21.51,0
2897690773,24266.473391,1777903098.066668,-1059,133,1770,-3,-1,-1,-0.517090,0.064941,0.864258,-0.183105,-0.061035,-0.061035,21.56,0
2897691784,24266.473397,1777903098.067678,-1059,133,1775,-4,-2,-1,-0.517090,0.064941,0.866699,-0.244141,-0.122070,-0.061035,21.53,0
2897692797,24266.473404,1777903098.068690,-1058,131,1773,-3,-2,-1,-0.516602,0.063965,0.865723,-0.183105,-0.122070,-0.061035,21.65,0
2897693808,24266.473410,1777903098.069700,-1061,131,1767,-3,-3,-1,-0.518066,0.063965,0.862793,-0.183105,-0.183105,-0.061035,21.53,0
2897694821,24266.473417,1777903098.070713,-1062,131,1768,-3,-2,0,-0.518555,0.063965,0.863281,-0.183105,-0.122070,0.000000,21.50,1
2897695832,24266.473424,1777903098.071723,-1060,130,1773,-3,-2,0,-0.517578,0.063477,0.865723,-0.183105,-0.122070,0.000000,21.66,0
2897696846,24266.473430,1777903098.072736,-1063,131,1774,-3,-2,-1,-0.519043,0.063965,0.866211,-0.183105,-0.122070,-0.061035,21.53,0
2897697859,24266.481488,1777903098.073748,-1065,131,1775,-2,-2,-1,-0.520020,0.063965,0.866699,-0.122070,-0.122070,-0.061035,21.71,0
2897698871,24266.481499,1777903098.074759,-1061,130,1774,-1,-2,0,-0.518066,0.063477,0.866211,-0.061035,-0.122070,0.000000,21.59,0
2897699883,24266.481505,1777903098.075771,-1060,126,1772,-1,-2,0,-0.517578,0.061523,0.865234,-0.061035,-0.122070,0.000000,21.54,0
2897700895,24266.481512,1777903098.076782,-1060,128,1771,-2,-2,0,-0.517578,0.062500,0.864746,-0.122070,-0.122070,0.000000,21.50,0
2897701906,24266.481518,1777903098.077792,-1058,132,1771,-2,-1,0,-0.516602,0.064453,0.864746,-0.122070,-0.061035,0.000000,21.56,0
2897702920,24266.481525,1777903098.078805,-1059,129,1771,-2,0,0,-0.517090,0.062988,0.864746,-0.122070,0.000000,0.000000,21.53,0
2897703931,24266.481531,1777903098.079816,-1061,128,1773,-3,-1,0,-0.518066,0.062500,0.865723,-0.183105,-0.061035,0.000000,21.54,0
2897704944,24266.481538,1777903098.080828,-1058,129,1773,-3,-1,-1,-0.516602,0.062988,0.865723,-0.183105,-0.061035,-0.061035,21.56,0
2897705956,24266.489591,1777903098.081836,-1057,128,1772,-3,-2,-1,-0.516113,0.062500,0.865234,-0.183105,-0.122070,-0.061035,21.56,1
2897706970,24266.489606,1777903098.082849,-1059,127,1775,-2,-2,-1,-0.517090,0.062012,0.866699,-0.122070,-0.122070,-0.061035,21.50,0
2897707979,24266.489613,1777903098.083857,-1059,130,1776,-2,-2,0,-0.517090,0.063477,0.867188,-0.122070,-0.122070,0.000000,21.57,0
2897708993,24266.489620,1777903098.084870,-1059,131,1773,-3,-2,0,-0.517090,0.063965,0.865723,-0.183105,-0.122070,0.000000,21.56,0
2897710004,24266.489627,1777903098.085881,-1058,129,1769,-3,-1,-1,-0.516602,0.062988,0.863770,-0.183105,-0.061035,-0.061035,21.53,0
2897711018,24266.489633,1777903098.086894,-1059,128,1769,-2,-1,-2,-0.517090,0.062500,0.863770,-0.122070,-0.061035,-0.122070,21.48,0
2897712031,24266.489640,1777903098.087906,-1062,128,1771,-2,-1,-2,-0.518555,0.062500,0.864746,-0.122070,-0.061035,-0.122070,21.53,0
2897713042,24266.489646,1777903098.088917,-1060,130,1773,-2,-2,-1,-0.517578,0.063477,0.865723,-0.122070,-0.122070,-0.061035,21.59,0
2897714055,24266.497682,1777903098.089929,-1061,129,1772,-2,-2,0,-0.518066,0.062988,0.865234,-0.122070,-0.122070,0.000000,21.59,0
2897715068,24266.497699,1777903098.090941,-1063,128,1771,-3,-2,0,-0.519043,0.062500,0.864746,-0.183105,-0.122070,0.000000,21.51,0
2897716079,24266.497706,1777903098.091951,-1060,129,1775,-2,-1,-1,-0.517578,0.062988,0.866699,-0.122070,-0.061035,-0.061035,21.56,0
2897717097,24266.497712,1777903098.092973,-1059,129,1778,-2,-2,-1,-0.517090,0.062988,0.868164,-0.122070,-0.122070,-0.061035,21.63,1
2897718103,24266.497720,1777903098.093978,-1063,129,1777,-3,-3,-1,-0.519043,0.062988,0.867676,-0.183105,-0.183105,-0.061035,21.56,0
2897719116,24266.497727,1777903098.094991,-1064,131,1772,-2,-2,0,-0.519531,0.063965,0.865234,-0.122070,-0.122070,0.000000,21.48,0
2897720129,24266.497733,1777903098.096003,-1061,129,1770,-2,-1,0,-0.518066,0.062988,0.864258,-0.122070,-0.061035,0.000000,21.53,0
2897721139,24266.497740,1777903098.097012,-1060,127,1772,-3,-1,-1,-0.517578,0.062012,0.865234,-0.183105,-0.061035,-0.061035,21.42,0
2897722154,24266.505798,1777903098.098027,-1060,131,1772,-3,-1,-1,-0.517578,0.063965,0.865234,-0.183105,-0.061035,-0.061035,21.56,0
2897723166,24266.505815,1777903098.099038,-1059,132,1772,-2,-1,-1,-0.517090,0.064453,0.865234,-0.122070,-0.061035,-0.061035,21.57,0
2897724176,24266.505826,1777903098.100047,-1056,126,1773,-2,-2,-1,-0.515625,0.061523,0.865723,-0.122070,-0.122070,-0.061035,21.47,0
2897725190,24266.505837,1777903098.101061,-1057,125,1774,-3,-2,-2,-0.516113,0.061035,0.866211,-0.183105,-0.122070,-0.122070,21.50,0
2897726202,24266.505847,1777903098.102072,-1059,127,1774,-3,-1,-1,-0.517090,0.062012,0.866211,-0.183105,-0.061035,-0.061035,21.66,0
2897727213,24266.505858,1777903098.103082,-1060,129,1773,-3,-1,-1,-0.517578,0.062988,0.865723,-0.183105,-0.061035,-0.061035,21.47,0
2897728226,24266.505868,1777903098.104095,-1062,131,1768,-2,-1,-1,-0.518555,0.063965,0.863281,-0.122070,-0.061035,-0.061035,21.53,1
2897729237,24266.505879,1777903098.105105,-1060,130,1767,-3,-2,-1,-0.517578,0.063477,0.862793,-0.183105,-0.122070,-0.061035,21.57,0
2897730252,24266.513985,1777903098.106122,-1058,129,1770,-2,-2,-1,-0.516602,0.062988,0.864258,-0.122070,-0.122070,-0.061035,21.44,0
2897731263,24266.514008,1777903098.107132,-1061,132,1771,-3,-2,-1,-0.518066,0.064453,0.864746,-0.183105,-0.122070,-0.061035,21.62,0
2897732275,24266.514019,1777903098.108143,-1062,133,1774,-4,-2,-1,-0.518555,0.064941,0.866211,-0.244141,-0.122070,-0.061035,21.50,0
2897733288,24266.514029,1777903098.109156,-1058,131,1774,-3,-2,-1,-0.516602,0.063965,0.866211,-0.183105,-0.122070,-0.061035,21.53,0
2897734300,24266.514039,1777903098.110167,-1059,130,1772,-2,-2,-1,-0.517090,0.063477,0.865234,-0.122070,-0.122070,-0.061035,21.53,0
2897735312,24266.514050,1777903098.111178,-1062,130,1772,-3,-1,-1,-0.518555,0.063477,0.865234,-0.183105,-0.061035,-0.061035,21.56,0
2897736323,24266.514060,1777903098.112189,-1059,131,1771,-3,-1,-1,-0.517090,0.063965,0.864746,-0.183105,-0.061035,-0.061035,21.59,0
2897737336,24266.514070,1777903098.113201,-1055,132,1769,-3,-1,-1,-0.515137,0.064453,0.863770,-0.183105,-0.061035,-0.061035,21.51,0
2897738348,24266.521982,1777903098.114212,-1057,131,1774,-2,-1,-1,-0.516113,0.063965,0.866211,-0.122070,-0.061035,-0.061035,21.48,0
2897739360,24266.522004,1777903098.115225,-1061,131,1774,-2,-1,0,-0.518066,0.063965,0.866211,-0.122070,-0.061035,0.000000,21.56,1
2897740373,24266.522016,1777903098.116238,-1060,131,1770,-2,-1,0,-0.517578,0.063965,0.864258,-0.122070,-0.061035,0.000000,21.53,0
2897741385,24266.522026,1777903098.117249,-1060,128,1770,-2,-2,0,-0.517578,0.062500,0.864258,-0.122070,-0.122070,0.000000,21.47,0
2897742399,24266.522102,1777903098.118262,-1059,128,1769,-2,-2,0,-0.517090,0.062500,0.863770,-0.122070,-0.122070,0.000000,21.47,0
2897743409,24266.522112,1777903098.119272,-1057,129,1769,-3,-1,0,-0.516113,0.062988,0.863770,-0.183105,-0.061035,0.000000,21.44,0
2897744422,24266.522122,1777903098.120284,-1060,127,1773,-2,-2,0,-0.517578,0.062012,0.865723,-0.122070,-0.122070,0.000000,21.47,0
2897745435,24266.522132,1777903098.121296,-1062,126,1774,-1,-2,-1,-0.518555,0.061523,0.866211,-0.061035,-0.122070,-0.061035,21.57,0
2897746446,24266.530082,1777903098.122307,-1061,129,1772,-3,-1,-1,-0.518066,0.062988,0.865234,-0.183105,-0.061035,-0.061035,21.57,0
2897747460,24266.530105,1777903098.123320,-1062,129,1774,-4,-1,-1,-0.518555,0.062988,0.866211,-0.244141,-0.061035,-0.061035,21.54,0
2897748472,24266.530116,1777903098.124331,-1060,127,1774,-3,-1,-1,-0.517578,0.062012,0.866211,-0.183105,-0.061035,-0.061035,21.59,0
2897749483,24266.530126,1777903098.125342,-1056,130,1775,-2,-1,0,-0.515625,0.063477,0.866699,-0.122070,-0.061035,0.000000,21.48,0
2897750496,24266.530137,1777903098.126354,-1057,132,1775,-3,-1,0,-0.516113,0.064453,0.866699,-0.183105,-0.061035,0.000000,21.51,1
2897751509,24266.530150,1777903098.127366,-1058,132,1772,-3,-2,-1,-0.516602,0.064453,0.865234,-0.183105,-0.122070,-0.061035,21.59,0
2897752519,24266.530160,1777903098.128376,-1059,132,1771,-3,-2,-1,-0.517090,0.064453,0.864746,-0.183105,-0.122070,-0.061035,21.50,0
2897753531,24266.530170,1777903098.129387,-1059,132,1775,-3,-1,-1,-0.517090,0.064453,0.866699,-0.183105,-0.061035,-0.061035,21.59,0
2897754546,24266.538157,1777903098.130402,-1058,132,1778,-3,-1,-1,-0.516602,0.064453,0.868164,-0.183105,-0.061035,-0.061035,21.71,0
2897755557,24266.538176,1777903098.131412,-1061,131,1777,-2,-1,0,-0.518066,0.063965,0.867676,-0.122070,-0.061035,0.000000,21.51,0
2897756571,24266.538184,1777903098.132425,-1063,128,1773,-2,-2,0,-0.519043,0.062500,0.865723,-0.122070,-0.122070,0.000000,21.44,0
2897757583,24266.538190,1777903098.133437,-1060,125,1769,-3,-2,-2,-0.517578,0.061035,0.863770,-0.183105,-0.122070,-0.122070,21.65,0
2897758595,24266.538197,1777903098.134448,-1059,128,1769,-3,-2,-2,-0.517090,0.062500,0.863770,-0.183105,-0.122070,-0.122070,21.68,0
2897759606,24266.538204,1777903098.135458,-1061,134,1770,-2,-2,-3,-0.518066,0.065430,0.864258,-0.122070,-0.122070,-0.183105,21.57,0
2897760619,24266.538210,1777903098.136471,-1061,133,1769,-2,-2,-2,-0.518066,0.064941,0.863770,-0.122070,-0.122070,-0.122070,21.56,0
2897761631,24266.538217,1777903098.137482,-1059,128,1769,-2,-2,-1,-0.517090,0.062500,0.863770,-0.122070,-0.122070,-0.061035,21.65,1
2897762644,24266.546257,1777903098.138492,-1059,128,1773,-2,-2,-1,-0.517090,0.062500,0.865723,-0.122070,-0.122070,-0.061035,21.44,0
2897763655,24266.546275,1777903098.139502,-1059,133,1771,-1,-2,-1,-0.517090,0.064941,0.864746,-0.061035,-0.122070,-0.061035,21.44,0
2897764668,24266.546285,1777903098.140515,-1058,131,1768,-1,-1,0,-0.516602,0.063965,0.863281,-0.061035,-0.061035,0.000000,21.50,0
2897765680,24266.546296,1777903098.141526,-1059,130,1770,-2,-1,0,-0.517090,0.063477,0.864258,-0.122070,-0.061035,0.000000,21.50,0
2897766692,24266.546306,1777903098.142537,-1059,132,1768,-2,-1,-1,-0.517090,0.064453,0.863281,-0.122070,-0.061035,-0.061035,21.65,0
2897767704,24266.546316,1777903098.143548,-1059,134,1765,-1,-1,-1,-0.517090,0.065430,0.861816,-0.061035,-0.061035,-0.061035,21.54,0
2897768717,24266.546326,1777903098.144561,-1059,132,1768,-2,-1,0,-0.517090,0.064453,0.863281,-0.122070,-0.061035,0.000000,21.42,0
2897769728,24266.546336,1777903098.145571,-1062,129,1775,-3,-1,0,-0.518555,0.062988,0.866699,-0.183105,-0.061035,0.000000,21.47,0
2897770742,24266.554382,1777903098.146584,-1061,131,1773,-3,-2,0,-0.518066,0.063965,0.865723,-0.183105,-0.122070,0.000000,21.45,0
2897771754,24266.554401,1777903098.147596,-1058,129,1768,-3,-1,-1,-0.516602,0.062988,0.863281,-0.183105,-0.061035,-0.061035,21.59,0
2897772764,24266.554409,1777903098.148607,-1061,126,1769,-2,0,0,-0.518066,0.061523,0.863770,-0.122070,0.000000,0.000000,21.59,1
2897773778,24266.554416,1777903098.149620,-1064,130,1772,-2,-1,-1,-0.519531,0.063477,0.865234,-0.122070,-0.061035,-0.061035,21.56,0
2897774789,24266.554423,1777903098.150631,-1061,131,1774,-2,-2,-1,-0.518066,0.063965,0.866211,-0.122070,-0.122070,-0.061035,21.57,0
2897775802,24266.554430,1777903098.151643,-1060,129,1776,-2,-1,-1,-0.517578,0.062988,0.867188,-0.122070,-0.061035,-0.061035,21.45,0
2897776815,24266.554436,1777903098.152655,-1060,129,1774,-1,-1,-2,-0.517578,0.062988,0.866211,-0.061035,-0.061035,-0.122070,21.51,0
2897777826,24266.554443,1777903098.153666,-1061,129,1770,-2,-1,-2,-0.518066,0.062988,0.864258,-0.122070,-0.061035,-0.122070,21.51,0
2897778840,24266.562449,1777903098.154679,-1065,127,1768,-3,-2,-2,-0.520020,0.062012,0.863281,-0.183105,-0.122070,-0.122070,21.50,0
2897779853,24266.562459,1777903098.155691,-1064,129,1768,-3,-2,-2,-0.519531,0.062988,0.863281,-0.183105,-0.122070,-0.122070,21.51,0
2897780862,24266.562465,1777903098.156700,-1061,132,1772,-2,-1,-1,-0.518066,0.064453,0.865234,-0.122070,-0.061035,-0.061035,21.66,0
2897781875,24266.562472,1777903098.157712,-1062,131,1774,-3,-1,-1,-0.518555,0.063965,0.866211,-0.183105,-0.061035,-0.061035,21.51,0
2897782889,24266.562478,1777903098.158725,-1063,132,1774,-3,-2,-1,-0.519043,0.064453,0.866211,-0.183105,-0.122070,-0.061035,21.47,0
2897783899,24266.562485,1777903098.159735,-1062,131,1774,-2,-2,0,-0.518555,0.063965,0.866211,-0.122070,-0.122070,0.000000,21.54,1
2897784913,24266.562492,1777903098.160748,-1061,127,1775,-2,-1,0,-0.518066,0.062012,0.866699,-0.122070,-0.061035,0.000000,21.56,0
2897785926,24266.562498,1777903098.161760,-1058,125,1774,-3,-1,0,-0.516602,0.061035,0.866211,-0.183105,-0.061035,0.000000,21.57,0
2897786938,24266.570587,1777903098.162775,-1057,126,1773,-3,-1,0,-0.516113,0.061523,0.865723,-0.183105,-0.061035,0.000000,21.56,0
2897787948,24266.570603,1777903098.163785,-1059,126,1773,-2,-2,-1,-0.517090,0.061523,0.865723,-0.122070,-0.122070,-0.061035,21.54,0
2897788963,24266.570610,1777903098.164799,-1059,129,1773,-2,-3,-1,-0.517090,0.062988,0.865723,-0.122070,-0.183105,-0.061035,21.57,0
2897789975,24266.570616,1777903098.165810,-1056,130,1771,-2,-2,-2,-0.515625,0.063477,0.864746,-0.122070,-0.122070,-0.122070,21.51,0
2897790987,24266.570623,1777903098.166821,-1057,130,1770,-3,-1,-1,-0.516113,0.063477,0.864258,-0.183105,-0.061035,-0.061035,21.50,0
2897791998,24266.570630,1777903098.167832,-1058,131,1772,-2,0,-1,-0.516602,0.063965,0.865234,-0.122070,0.000000,-0.061035,21.54,0
2897793010,24266.570636,1777903098.168843,-1060,130,1776,-2,-1,-1,-0.517578,0.063477,0.867188,-0.122070,-0.061035,-0.061035,21.47,0
2897794023,24266.570643,1777903098.169856,-1062,129,1772,-2,-2,0,-0.518555,0.062988,0.865234,-0.122070,-0.122070,0.000000,21.44,0
2897795037,24266.578655,1777903098.170864,-1061,130,1769,-2,-1,0,-0.518066,0.063477,0.863770,-0.122070,-0.061035,0.000000,21.53,1
2897796049,24266.578673,1777903098.171875,-1058,130,1772,-2,-1,0,-0.516602,0.063477,0.865234,-0.122070,-0.061035,0.000000,21.50,0
2897797062,24266.578680,1777903098.172888,-1056,129,1772,-2,-2,-1,-0.515625,0.062988,0.865234,-0.122070,-0.122070,-0.061035,21.63,0
2897798071,24266.578687,1777903098.173896,-1057,128,1771,-2,-1,-2,-0.516113,0.062500,0.864746,-0.122070,-0.061035,-0.122070,21.53,0
2897799095,24266.578694,1777903098.174919,-1059,126,1770,-3,-1,-2,-0.517090,0.061523,0.864258,-0.183105,-0.061035,-0.122070,21.59,0
2897800101,24266.578700,1777903098.175924,-1060,124,1770,-3,-1,-1,-0.517578,0.060547,0.864258,-0.183105,-0.061035,-0.061035,21.47,0
2897801108,24266.578707,1777903098.176931,-1060,127,1773,-3,-2,-1,-0.517578,0.062012,0.865723,-0.183105,-0.122070,-0.061035,21.56,0
2897802120,24266.578713,1777903098.177942,-1059,131,1773,-3,-1,-1,-0.517090,0.063965,0.865723,-0.183105,-0.061035,-0.061035,21.50,0
2897803134,24266.586749,1777903098.178955,-1058,128,1772,-3,-2,-1,-0.516602,0.062500,0.865234,-0.183105,-0.122070,-0.061035,21.65,0
2897804145,24266.586768,1777903098.179966,-1058,126,1772,-2,-2,0,-0.516602,0.061523,0.865234,-0.122070,-0.122070,0.000000,21.53,0
2897805158,24266.586779,1777903098.180978,-1058,128,1772,-2,-2,0,-0.516602,0.062500,0.865234,-0.122070,-0.122070,0.000000,21.62,0
2897806171,24266.586831,1777903098.181992,-1058,129,1772,-3,-2,-1,-0.516602,0.062988,0.865234,-0.183105,-0.122070,-0.061035,21.74,1
2897807184,24266.586843,1777903098.183004,-1059,126,1773,-3,-1,-1,-0.517090,0.061523,0.865723,-0.183105,-0.061035,-0.061035,21.51,0
2897808194,24266.586853,1777903098.184013,-1058,126,1772,-3,-1,0,-0.516602,0.061523,0.865234,-0.183105,-0.061035,0.000000,21.65,0
2897809206,24266.586863,1777903098.185025,-1057,130,1767,-3,-1,-1,-0.516113,0.063477,0.862793,-0.183105,-0.061035,-0.061035,21.53,0
2897810220,24266.586874,1777903098.186038,-1061,132,1767,-3,-1,-2,-0.518066,0.064453,0.862793,-0.183105,-0.061035,-0.122070,21.54,0
2897811233,24266.594845,1777903098.187050,-1063,133,1771,-2,-2,-2,-0.519043,0.064941,0.864746,-0.122070,-0.122070,-0.122070,21.54,0
2897812245,24266.594867,1777903098.188062,-1058,133,1772,-1,-2,0,-0.516602,0.064941,0.865234,-0.061035,-0.122070,0.000000,21.53,0
2897813257,24266.594874,1777903098.189073,-1056,130,1775,-1,-2,0,-0.515625,0.063477,0.866699,-0.061035,-0.122070,0.000000,21.53,0
2897814269,24266.594881,1777903098.190084,-1059,129,1776,-2,-2,-1,-0.517090,0.062988,0.867188,-0.122070,-0.122070,-0.061035,21.47,0
2897815281,24266.594888,1777903098.191096,-1061,129,1772,-3,-2,0,-0.518066,0.062988,0.865234,-0.183105,-0.122070,0.000000,21.54,0
2897816294,24266.594894,1777903098.192108,-1060,127,1767,-3,-2,-1,-0.517578,0.062012,0.862793,-0.183105,-0.122070,-0.061035,21.66,0
2897817305,24266.594901,1777903098.193118,-1059,127,1769,-3,-2,-1,-0.517090,0.062012,0.863770,-0.183105,-0.122070,-0.061035,21.47,1
2897818316,24266.594909,1777903098.194129,-1057,128,1773,-3,-2,-1,-0.516113,0.062500,0.865723,-0.183105,-0.122070,-0.061035,21.50,0
2897819329,24266.602967,1777903098.195142,-1060,129,1775,-3,-2,-1,-0.517578,0.062988,0.866699,-0.183105,-0.122070,-0.061035,21.53,0
2897820344,24266.602997,1777903098.196156,-1063,127,1774,-3,-2,-1,-0.519043,0.062012,0.866211,-0.183105,-0.122070,-0.061035,21.59,0
2897821353,24266.603015,1777903098.197165,-1061,125,1773,-2,-1,-1,-0.518066,0.061035,0.865723,-0.122070,-0.061035,-0.061035,21.53,0
2897822368,24266.603026,1777903098.198179,-1062,128,1775,-2,-1,0,-0.518555,0.062500,0.866699,-0.122070,-0.061035,0.000000,21.56,0
2897823379,24266.603036,1777903098.199189,-1063,131,1775,-2,-2,-1,-0.519043,0.063965,0.866699,-0.122070,-0.122070,-0.061035,21.50,0
2897824390,24266.603047,1777903098.200200,-1058,129,1773,-2,-1,-1,-0.516602,0.062988,0.865723,-0.122070,-0.061035,-0.061035,21.65,0
2897825403,24266.603057,1777903098.201212,-1057,128,1769,-2,-1,-2,-0.516113,0.062500,0.863770,-0.122070,-0.061035,-0.122070,21.53,0
2897826416,24266.603067,1777903098.202224,-1059,130,1767,-2,-1,-1,-0.517090,0.063477,0.862793,-0.122070,-0.061035,-0.061035,21.56,0
2897827428,24266.611047,1777903098.203236,-1059,132,1771,-2,-1,-1,-0.517090,0.064453,0.864746,-0.122070,-0.061035,-0.061035,21.57,0
2897828440,24266.611065,1777903098.204247,-1060,131,1773,-3,-2,-1,-0.517578,0.063965,0.865723,-0.183105,-0.122070,-0.061035,21.57,1
2897829454,24266.611076,1777903098.205260,-1059,129,1771,-3,-3,-1,-0.517090,0.062988,0.864746,-0.183105,-0.183105,-0.061035,21.45,0
2897830466,24266.611087,1777903098.206271,-1059,130,1773,-1,-2,-1,-0.517090,0.063477,0.865723,-0.061035,-0.122070,-0.061035,21.47,0
2897831477,24266.611097,1777903098.207282,-1058,130,1773,-1,-1,-1,-0.516602,0.063477,0.865723,-0.061035,-0.061035,-0.061035,21.50,0
2897832491,24266.611108,1777903098.208295,-1058,127,1769,-2,-1,-1,-0.516602,0.062012,0.863770,-0.122070,-0.061035,-0.061035,21.48,0
2897833500,24266.611118,1777903098.209303,-1058,128,1770,-2,-2,0,-0.516602,0.062500,0.864258,-0.122070,-0.122070,0.000000,21.57,0
2897834514,24266.611129,1777903098.210316,-1058,132,1775,-2,-1,0,-0.516602,0.064453,0.866699,-0.122070,-0.061035,0.000000,21.38,0
2897835527,24266.619140,1777903098.211329,-1059,133,1775,-3,-1,0,-0.517090,0.064941,0.866699,-0.183105,-0.061035,0.000000,21.45,0
2897836537,24266.619173,1777903098.212338,-1061,131,1771,-3,-1,-1,-0.518066,0.063965,0.864746,-0.183105,-0.061035,-0.061035,21.53,0
2897837552,24266.619181,1777903098.213352,-1058,130,1772,-3,-1,-1,-0.516602,0.063477,0.865234,-0.183105,-0.061035,-0.061035,21.60,0
2897838563,24266.619188,1777903098.214363,-1060,131,1775,-3,-1,0,-0.517578,0.063965,0.866699,-0.183105,-0.061035,0.000000,21.50,0
2897839576,24266.619195,1777903098.215375,-1064,131,1776,-2,-1,-1,-0.519531,0.063965,0.867188,-0.122070,-0.061035,-0.061035,21.56,1
2897840589,24266.619205,1777903098.216388,-1062,132,1774,-1,-1,-1,-0.518555,0.064453,0.866211,-0.061035,-0.061035,-0.061035,21.51,0
2897841600,24266.619211,1777903098.217398,-1059,132,1772,-2,-2,-1,-0.517090,0.064453,0.865234,-0.122070,-0.122070,-0.061035,21.51,0
2897842611,24266.619218,1777903098.218408,-1059,128,1771,-3,-2,-1,-0.517090,0.062500,0.864746,-0.183105,-0.122070,-0.061035,21.53,0
2897843624,24266.627251,1777903098.219425,-1059,128,1775,-3,-2,0,-0.517090,0.062500,0.866699,-0.183105,-0.122070,0.000000,21.65,0
2897844635,24266.627265,1777903098.220436,-1060,131,1775,-2,-2,1,-0.517578,0.063965,0.866699,-0.122070,-0.122070,0.061035,21.65,0
2897845650,24266.627273,1777903098.221450,-1061,132,1772,-2,-2,0,-0.518066,0.064453,0.865234,-0.122070,-0.122070,0.000000,21.47,0
2897846660,24266.627279,1777903098.222460,-1060,131,1773,-2,-2,-1,-0.517578,0.063965,0.865723,-0.122070,-0.122070,-0.061035,21.48,0
2897847672,24266.627286,1777903098.223471,-1058,131,1774,-2,-1,-1,-0.516602,0.063965,0.866211,-0.122070,-0.061035,-0.061035,21.56,0
2897848686,24266.627293,1777903098.224484,-1060,129,1771,-2,-1,-1,-0.517578,0.062988,0.864746,-0.122070,-0.061035,-0.061035,21.54,0
2897849698,24266.627299,1777903098.225496,-1063,127,1771,-2,-2,-1,-0.519043,0.062012,0.864746,-0.122070,-0.122070,-0.061035,21.57,0
2897850711,24266.627306,1777903098.226508,-1063,127,1774,-2,-2,-1,-0.519043,0.062012,0.866211,-0.122070,-0.122070,-0.061035,21.56,1
2897851721,24266.635344,1777903098.227515,-1062,127,1775,-2,-2,-1,-0.518555,0.062012,0.866699,-0.122070,-0.122070,-0.061035,21.47,0
2897852736,24266.635360,1777903098.228529,-1062,127,1775,-2,-2,-1,-0.518555,0.062012,0.866699,-0.122070,-0.122070,-0.061035,21.62,0
2897853748,24266.635368,1777903098.229541,-1061,128,1773,-3,-2,-1,-0.518066,0.062500,0.865723,-0.183105,-0.122070,-0.061035,21.51,0
2897854758,24266.635375,1777903098.230550,-1061,129,1774,-3,-2,-1,-0.518066,0.062988,0.866211,-0.183105,-0.122070,-0.061035,21.47,0
2897855773,24266.635381,1777903098.231564,-1061,130,1774,-2,-2,-1,-0.518066,0.063477,0.866211,-0.122070,-0.122070,-0.061035,21.50,0
2897856783,24266.635388,1777903098.232574,-1060,131,1772,-1,-1,-1,-0.517578,0.063965,0.865234,-0.061035,-0.061035,-0.061035,21.50,0
2897857795,24266.635395,1777903098.233585,-1059,130,1773,-1,-1,0,-0.517090,0.063477,0.865723,-0.061035,-0.061035,0.000000,21.56,0
2897858809,24266.635402,1777903098.234598,-1058,128,1773,-3,-1,-1,-0.516602,0.062500,0.865723,-0.183105,-0.061035,-0.061035,21.65,0
2897859821,24266.643460,1777903098.235610,-1059,126,1772,-3,-2,-1,-0.517090,0.061523,0.865234,-0.183105,-0.122070,-0.061035,21.56,0
2897860832,24266.643480,1777903098.236620,-1061,129,1772,-1,-2,-1,-0.518066,0.062988,0.865234,-0.061035,-0.122070,-0.061035,21.65,0
2897861846,24266.643491,1777903098.237633,-1060,130,1774,-1,-1,-1,-0.517578,0.063477,0.866211,-0.061035,-0.061035,-0.061035,21.56,1
2897862857,24266.643502,1777903098.238644,-1059,127,1776,-3,-1,-1,-0.517090,0.062012,0.867188,-0.183105,-0.061035,-0.061035,21.53,0
2897863869,24266.643513,1777903098.239655,-1061,125,1775,-3,-1,-1,-0.518066,0.061035,0.866699,-0.183105,-0.061035,-0.061035,21.51,0
2897864883,24266.643523,1777903098.240668,-1060,128,1773,-3,-1,0,-0.517578,0.062500,0.865723,-0.183105,-0.061035,0.000000,21.53,0
2897865895,24266.643534,1777903098.241680,-1059,128,1773,-2,-1,-1,-0.517090,0.062500,0.865723,-0.122070,-0.061035,-0.061035,21.53,0
2897866907,24266.643544,1777903098.242691,-1059,127,1774,-1,-1,-1,-0.517090,0.062012,0.866211,-0.061035,-0.061035,-0.061035,21.57,0
2897867918,24266.651540,1777903098.243701,-1057,130,1774,-1,-2,-1,-0.516113,0.063477,0.866211,-0.061035,-0.122070,-0.061035,21.54,0
2897868931,24266.651605,1777903098.244714,-1058,129,1775,-1,-2,-1,-0.516602,0.062988,0.866699,-0.061035,-0.122070,-0.061035,21.53,0
2897869944,24266.651612,1777903098.245726,-1062,127,1778,-2,-2,-1,-0.518555,0.062012,0.868164,-0.122070,-0.122070,-0.061035,21.48,0
2897870957,24266.651619,1777903098.246738,-1060,129,1775,-3,-2,0,-0.517578,0.062988,0.866699,-0.183105,-0.122070,0.000000,21.54,0
2897871967,24266.651626,1777903098.247748,-1057,130,1772,-3,-2,-1,-0.516113,0.063477,0.865234,-0.183105,-0.122070,-0.061035,21.45,0
2897872981,24266.651632,1777903098.248761,-1059,130,1771,-2,-2,0,-0.517090,0.063477,0.864746,-0.122070,-0.122070,0.000000,21.44,1
2897873993,24266.651641,1777903098.249772,-1062,131,1771,-2,-2,1,-0.518555,0.063965,0.864746,-0.122070,-0.122070,0.061035,21.50,0
2897875005,24266.651648,1777903098.250784,-1059,131,1770,-3,-2,0,-0.517090,0.063965,0.864258,-0.183105,-0.122070,0.000000,21.54,0
2897876018,24266.659637,1777903098.251793,-1058,131,1772,-2,-2,-2,-0.516602,0.063965,0.865234,-0.122070,-0.122070,-0.122070,21.66,0
2897877028,24266.659663,1777903098.252802,-1060,129,1775,-1,-1,-1,-0.517578,0.062988,0.866699,-0.061035,-0.061035,-0.061035,21.56,0
2897878042,24266.659675,1777903098.253816,-1061,129,1776,-2,-1,0,-0.518066,0.062988,0.867188,-0.122070,-0.061035,0.000000,21.57,0
2897879055,24266.659686,1777903098.254828,-1063,130,1774,-3,-2,0,-0.519043,0.063477,0.866211,-0.183105,-0.122070,0.000000,21.42,0
2897880065,24266.659696,1777903098.255837,-1060,132,1774,-2,-2,-1,-0.517578,0.064453,0.866211,-0.122070,-0.122070,-0.061035,21.63,0
2897881077,24266.659707,1777903098.256849,-1057,136,1775,-2,-2,-2,-0.516113,0.066406,0.866699,-0.122070,-0.122070,-0.122070,21.44,0
2897882096,24266.659717,1777903098.257867,-1058,134,1775,-4,-1,-1,-0.516602,0.065430,0.866699,-0.244141,-0.061035,-0.061035,21.53,0
2897883103,24266.659728,1777903098.258873,-1058,127,1776,-5,0,0,-0.516602,0.062012,0.867188,-0.305176,0.000000,0.000000,21.51,0
2897884116,24266.667723,1777903098.259886,-1058,129,1772,-3,-1,0,-0.516602,0.062988,0.865234,-0.183105,-0.061035,0.000000,21.62,1
2897885126,24266.667742,1777903098.260895,-1058,133,1768,-2,-2,-1,-0.516602,0.064941,0.863281,-0.122070,-0.122070,-0.061035,21.50,0
2897886138,24266.667753,1777903098.261907,-1056,132,1771,-2,-2,-1,-0.515625,0.064453,0.864746,-0.122070,-0.122070,-0.061035,21.56,0
2897887150,24266.667764,1777903098.262918,-1056,130,1775,-3,-2,-1,-0.515625,0.063477,0.866699,-0.183105,-0.122070,-0.061035,21.59,0
2897888165,24266.667775,1777903098.263932,-1059,131,1776,-3,-2,-1,-0.517090,0.063965,0.867188,-0.183105,-0.122070,-0.061035,21.48,0
2897889178,24266.667785,1777903098.264945,-1059,130,1775,-2,-2,-2,-0.517090,0.063477,0.866699,-0.122070,-0.122070,-0.122070,21.50,0
2897890189,24266.667796,1777903098.265955,-1059,129,1775,-2,-2,-1,-0.517090,0.062988,0.866699,-0.122070,-0.122070,-0.061035,21.53,0
2897891201,24266.667806,1777903098.266966,-1059,130,1776,-2,-2,-1,-0.517090,0.063477,0.867188,-0.122070,-0.122070,-0.061035,21.51,0
2897892214,24266.675862,1777903098.267979,-1060,131,1773,-2,-1,-1,-0.517578,0.063965,0.865723,-0.122070,-0.061035,-0.061035,21.45,0
2897893225,24266.675894,1777903098.268989,-1062,129,1769,-2,-1,-2,-0.518555,0.062988,0.863770,-0.122070,-0.061035,-0.122070,21.48,0
2897894238,24266.675912,1777903098.270001,-1061,129,1772,-1,0,-1,-0.518066,0.062988,0.865234,-0.061035,0.000000,-0.061035,21.44,0
2897895251,24266.675922,1777903098.271011,-1059,130,1776,-2,-1,0,-0.517090,0.063477,0.867188,-0.122070,-0.061035,0.000000,21.54,1
2897896262,24266.675934,1777903098.272022,-1059,129,1774,-2,-2,0,-0.517090,0.062988,0.866211,-0.122070,-0.122070,0.000000,21.57,0
2897897273,24266.675943,1777903098.273032,-1060,130,1774,-3,-2,-1,-0.517578,0.063477,0.866211,-0.183105,-0.122070,-0.061035,21.65,0
2897898286,24266.675953,1777903098.274044,-1059,132,1775,-3,-2,-1,-0.517090,0.064453,0.866699,-0.183105,-0.122070,-0.061035,21.66,0
2897899299,24266.675963,1777903098.275056,-1060,130,1775,-3,-2,-1,-0.517578,0.063477,0.866699,-0.183105,-0.122070,-0.061035,21.56,0
2897900312,24266.683959,1777903098.276069,-1061,126,1776,-3,-2,0,-0.518066,0.061523,0.867188,-0.183105,-0.122070,0.000000,21.48,0
2897901322,24266.683978,1777903098.277078,-1062,126,1773,-3,-2,-1,-0.518555,0.061523,0.865723,-0.183105,-0.122070,-0.061035,21.50,0
2897902334,24266.683989,1777903098.278089,-1061,130,1774,-3,-1,-1,-0.518066,0.063477,0.866211,-0.183105,-0.061035,-0.061035,21.48,0
2897903349,24266.684000,1777903098.279104,-1058,131,1778,-2,-1,0,-0.516602,0.063965,0.868164,-0.122070,-0.061035,0.000000,21.53,0
2897904360,24266.684018,1777903098.280114,-1060,126,1774,-2,-2,-1,-0.517578,0.061523,0.866211,-0.122070,-0.122070,-0.061035,21.56,0
2897905373,24266.684028,1777903098.281126,-1063,126,1771,-1,-3,-1,-0.519043,0.061523,0.864746,-0.061035,-0.183105,-0.061035,21.54,0
2897906386,24266.684039,1777903098.282139,-1063,129,1773,-2,-2,0,-0.519043,0.062988,0.865723,-0.122070,-0.122070,0.000000,21.54,1
2897907398,24266.684050,1777903098.283150,-1063,128,1773,-3,-2,-1,-0.519043,0.062500,0.865723,-0.183105,-0.122070,-0.061035,21.53,0
2897908411,24266.692029,1777903098.284167,-1064,129,1774,-2,-2,-1,-0.519531,0.062988,0.866211,-0.122070,-0.122070,-0.061035,21.45,0
2897909422,24266.692047,1777903098.285177,-1064,129,1773,-2,-2,-1,-0.519531,0.062988,0.865723,-0.122070,-0.122070,-0.061035,21.59,0
2897910434,24266.692054,1777903098.286189,-1063,130,1768,-2,-1,0,-0.519043,0.063477,0.863281,-0.122070,-0.061035,0.000000,21.56,0
2897911445,24266.692061,1777903098.287199,-1061,132,1770,-2,-2,-1,-0.518066,0.064453,0.864258,-0.122070,-0.122070,-0.061035,21.53,0
2897912459,24266.692068,1777903098.288212,-1059,131,1773,-1,-2,-1,-0.517090,0.063965,0.865723,-0.061035,-0.122070,-0.061035,21.51,0
2897913472,24266.692075,1777903098.289225,-1060,131,1774,-2,-2,-1,-0.517578,0.063965,0.866211,-0.122070,-0.122070,-0.061035,21.57,0
2897914483,24266.692082,1777903098.290235,-1063,131,1775,-3,-1,-1,-0.519043,0.063965,0.866699,-0.183105,-0.061035,-0.061035,21.53,0
2897915494,24266.692089,1777903098.291245,-1062,129,1775,-3,-1,-1,-0.518555,0.062988,0.866699,-0.183105,-0.061035,-0.061035,21.65,0
2897916509,24266.700127,1777903098.292260,-1058,130,1774,-2,-1,-1,-0.516602,0.063477,0.866211,-0.122070,-0.061035,-0.061035,21.68,0
2897917520,24266.700147,1777903098.293271,-1058,130,1771,-2,-1,-1,-0.516602,0.063477,0.864746,-0.122070,-0.061035,-0.061035,21.56,1
2897918532,24266.700159,1777903098.294283,-1058,129,1772,-2,-2,-2,-0.516602,0.062988,0.865234,-0.122070,-0.122070,-0.122070,21.59,0
2897919543,24266.700170,1777903098.295293,-1057,131,1774,-3,-2,-2,-0.516113,0.063965,0.866211,-0.183105,-0.122070,-0.122070,21.56,0
2897920557,24266.700180,1777903098.296306,-1058,133,1775,-3,-3,-2,-0.516602,0.064941,0.866699,-0.183105,-0.183105,-0.122070,21.53,0
2897921569,24266.700191,1777903098.297318,-1060,132,1776,-2,-2,-2,-0.517578,0.064453,0.867188,-0.122070,-0.122070,-0.122070,21.47,0
2897922581,24266.700201,1777903098.298329,-1059,128,1774,-1,-1,-1,-0.517090,0.062500,0.866211,-0.061035,-0.061035,-0.061035,21.53,0
2897923593,24266.700212,1777903098.299340,-1057,129,1770,-1,0,-1,-0.516113,0.062988,0.864258,-0.061035,0.000000,-0.061035,21.47,0
2897924606,24266.708204,1777903098.300353,-1059,131,1773,-1,-1,-2,-0.517090,0.063965,0.865723,-0.061035,-0.061035,-0.122070,21.59,0
2897925617,24266.708234,1777903098.301363,-1060,130,1775,-2,-2,-1,-0.517578,0.063477,0.866699,-0.122070,-0.122070,-0.061035,21.65,0
2897926630,24266.708241,1777903098.302375,-1060,128,1773,-3,-3,0,-0.517578,0.062500,0.865723,-0.183105,-0.183105,0.000000,21.53,0
2897927641,24266.708248,1777903098.303386,-1060,130,1775,-2,-3,0,-0.517578,0.063477,0.866699,-0.122070,-0.183105,0.000000,21.42,0
2897928655,24266.708255,1777903098.304401,-1061,131,1775,-2,-2,-1,-0.518066,0.063965,0.866699,-0.122070,-0.122070,-0.061035,21.53,1
2897929668,24266.708262,1777903098.305414,-1060,129,1773,-3,-1,0,-0.517578,0.062988,0.865723,-0.183105,-0.061035,0.000000,21.50,0
2897930680,24266.708269,1777903098.306425,-1058,130,1774,-3,-1,0,-0.516602,0.063477,0.866211,-0.183105,-0.061035,0.000000,21.66,0
2897931690,24266.708330,1777903098.307434,-1059,131,1774,-3,-2,0,-0.517090,0.063965,0.866211,-0.183105,-0.122070,0.000000,21.56,0
2897932703,24266.716331,1777903098.308447,-1059,130,1772,-3,-1,0,-0.517090,0.063477,0.865234,-0.183105,-0.061035,0.000000,21.65,0
2897933716,24266.716351,1777903098.309459,-1059,130,1773,-3,-1,0,-0.517090,0.063477,0.865723,-0.183105,-0.061035,0.000000,21.47,0
2897934728,24266.716362,1777903098.310471,-1061,131,1771,-3,-2,0,-0.518066,0.063965,0.864746,-0.183105,-0.122070,0.000000,21.48,0
2897935741,24266.716372,1777903098.311483,-1061,131,1771,-2,-3,-1,-0.518066,0.063965,0.864746,-0.122070,-0.183105,-0.061035,21.59,0
2897936753,24266.716383,1777903098.312494,-1060,130,1775,-2,-3,-1,-0.517578,0.063477,0.866699,-0.122070,-0.183105,-0.061035,21.56,0
2897937766,24266.716393,1777903098.313507,-1059,129,1776,-2,-2,0,-0.517090,0.062988,0.867188,-0.122070,-0.122070,0.000000,21.53,0
2897938777,24266.716404,1777903098.314517,-1056,130,1775,-2,-2,1,-0.515625,0.063477,0.866699,-0.122070,-0.122070,0.061035,21.51,0
2897939791,24266.716414,1777903098.315530,-1057,132,1772,-2,-2,0,-0.516113,0.064453,0.865234,-0.122070,-0.122070,0.000000,21.59,1
2897940802,24266.724410,1777903098.316537,-1059,131,1771,-1,-2,0,-0.517090,0.063965,0.864746,-0.061035,-0.122070,0.000000,21.63,0
2897941813,24266.724429,1777903098.317547,-1059,130,1773,-1,-2,-1,-0.517090,0.063477,0.865723,-0.061035,-0.122070,-0.061035,21.68,0
2897942828,24266.724440,1777903098.318561,-1058,130,1773,-2,-2,-1,-0.516602,0.063477,0.865723,-0.122070,-0.122070,-0.061035,21.59,0
2897943837,24266.724451,1777903098.319570,-1056,128,1773,-3,-1,-1,-0.515625,0.062500,0.865723,-0.183105,-0.061035,-0.061035,21.56,0
2897944852,24266.724461,1777903098.320584,-1058,127,1776,-2,-1,0,-0.516602,0.062012,0.867188,-0.122070,-0.061035,0.000000,21.48,0
2897945863,24266.724472,1777903098.321594,-1061,127,1775,-1,-2,0,-0.518066,0.062012,0.866699,-0.061035,-0.122070,0.000000,21.50,0
2897946875,24266.724483,1777903098.322606,-1063,125,1771,-2,-1,-1,-0.519043,0.061035,0.864746,-0.122070,-0.061035,-0.061035,21.69,0
2897947889,24266.724493,1777903098.323619,-1060,125,1770,-3,-1,-1,-0.517578,0.061035,0.864258,-0.183105,-0.061035,-0.061035,21.68,0
2897948899,24266.732596,1777903098.324628,-1058,128,1771,-3,-1,0,-0.516602,0.062500,0.864746,-0.183105,-0.061035,0.000000,21.47,0
2897949911,24266.732622,1777903098.325640,-1059,128,1772,-2,-2,0,-0.517090,0.062500,0.865234,-0.122070,-0.122070,0.000000,21.51,0
2897950926,24266.732632,1777903098.326653,-1058,128,1771,-2,-2,-1,-0.516602,0.062500,0.864746,-0.122070,-0.122070,-0.061035,21.65,1
2897951935,24266.732646,1777903098.327662,-1057,127,1772,-2,-1,-1,-0.516113,0.062012,0.865234,-0.122070,-0.061035,-0.061035,21.60,0
2897952949,24266.732657,1777903098.328675,-1058,128,1774,-2,-2,0,-0.516602,0.062500,0.866211,-0.122070,-0.122070,0.000000,21.77,0
2897953960,24266.732667,1777903098.329685,-1061,132,1775,-3,-2,-1,-0.518066,0.064453,0.866699,-0.183105,-0.122070,-0.061035,21.54,0
2897954974,24266.732678,1777903098.330698,-1059,131,1774,-3,-2,-2,-0.517090,0.063965,0.866211,-0.183105,-0.122070,-0.122070,21.56,0
2897955986,24266.732688,1777903098.331710,-1058,130,1772,-2,-2,-2,-0.516602,0.063477,0.865234,-0.122070,-0.122070,-0.122070,21.62,0
2897956999,24266.740638,1777903098.332722,-1060,129,1775,-3,-1,-1,-0.517578,0.062988,0.866699,-0.183105,-0.061035,-0.061035,21.59,0
2897958009,24266.740657,1777903098.333731,-1059,129,1775,-3,-1,-1,-0.517090,0.062988,0.866699,-0.183105,-0.061035,-0.061035,21.62,0
2897959024,24266.740668,1777903098.334746,-1059,130,1768,-2,-2,-1,-0.517090,0.063477,0.863281,-0.122070,-0.122070,-0.061035,21.53,0
2897960035,24266.740679,1777903098.335756,-1062,132,1766,-1,-2,-1,-0.518555,0.064453,0.862305,-0.061035,-0.122070,-0.061035,21.51,0
2897961048,24266.740690,1777903098.336768,-1062,133,1769,-2,-2,0,-0.518555,0.064941,0.863770,-0.122070,-0.122070,0.000000,21.47,0
2897962058,24266.740701,1777903098.337778,-1061,131,1769,-2,-1,0,-0.518066,0.063965,0.863770,-0.122070,-0.061035,0.000000,21.53,1
2897963073,24266.740713,1777903098.338792,-1059,128,1769,-2,-2,-1,-0.517090,0.062500,0.863770,-0.122070,-0.122070,-0.061035,21.53,0
2897964095,24266.740723,1777903098.339813,-1058,127,1770,-2,-2,-1,-0.516602,0.062012,0.864258,-0.122070,-0.122070,-0.061035,21.56,0
2897965100,24266.748708,1777903098.340817,-1058,128,1771,-2,-2,0,-0.516602,0.062500,0.864746,-0.122070,-0.122070,0.000000,21.56,0
2897966108,24266.748725,1777903098.341824,-1057,130,1772,-2,-2,0,-0.516113,0.063477,0.865234,-0.122070,-0.122070,0.000000,21.57,0
2897967122,24266.748733,1777903098.342837,-1058,132,1774,-2,-2,-1,-0.516602,0.064453,0.866211,-0.122070,-0.122070,-0.061035,21.47,0
2897968132,24266.748740,1777903098.343847,-1059,130,1778,-1,-2,-1,-0.517090,0.063477,0.868164,-0.061035,-0.122070,-0.061035,21.65,0
2897969146,24266.748746,1777903098.344860,-1058,129,1779,-2,-2,-1,-0.516602,0.062988,0.868652,-0.122070,-0.122070,-0.061035,21.47,0
2897970156,24266.748753,1777903098.345869,-1058,131,1774,-2,-1,-1,-0.516602,0.063965,0.866211,-0.122070,-0.061035,-0.061035,21.45,0
2897971169,24266.748760,1777903098.346882,-1059,133,1771,-3,0,-1,-0.517090,0.064941,0.864746,-0.183105,0.000000,-0.061035,21.56,0
2897972183,24266.748767,1777903098.347895,-1060,130,1772,-3,-1,-1,-0.517578,0.063477,0.865234,-0.183105,-0.061035,-0.061035,21.53,0
2897973195,24266.758792,1777903098.348906,-1060,129,1774,-2,-2,-1,-0.517578,0.062988,0.866211,-0.122070,-0.122070,-0.061035,21.56,1
2897974205,24266.758825,1777903098.349916,-1059,130,1775,-2,-2,0,-0.517090,0.063477,0.866699,-0.122070,-0.122070,0.000000,21.54,0
2897975218,24266.758837,1777903098.350928,-1058,130,1775,-3,-2,0,-0.516602,0.063477,0.866699,-0.183105,-0.122070,0.000000,21.53,0
2897976231,24266.758847,1777903098.351940,-1059,131,1773,-3,-2,-1,-0.517090,0.063965,0.865723,-0.183105,-0.122070,-0.061035,21.50,0
2897977244,24266.758858,1777903098.352953,-1061,129,1768,-2,-2,-1,-0.518066,0.062988,0.863281,-0.122070,-0.122070,-0.061035,21.53,0
2897978255,24266.758869,1777903098.353963,-1062,130,1770,-3,-1,-1,-0.518555,0.063477,0.864258,-0.183105,-0.061035,-0.061035,21.56,0
2897979269,24266.758879,1777903098.354976,-1060,133,1776,-3,-2,-1,-0.517578,0.064941,0.867188,-0.183105,-0.122070,-0.061035,21.50,0
2897980280,24266.758890,1777903098.355987,-1061,130,1778,-2,-2,-1,-0.518066,0.063477,0.868164,-0.122070,-0.122070,-0.061035,21.50,0
2897981294,24266.764955,1777903098.357723,-1063,128,1777,-3,-2,-1,-0.519043,0.062500,0.867676,-0.183105,-0.122070,-0.061035,21.44,0
2897982305,24266.764977,1777903098.358736,-1060,130,1772,-3,-2,-1,-0.517578,0.063477,0.865234,-0.183105,-0.122070,-0.061035,21.54,0
2897983318,24266.764984,1777903098.359749,-1059,133,1771,-2,-1,-1,-0.517090,0.064941,0.864746,-0.122070,-0.061035,-0.061035,21.51,0
2897984328,24266.764991,1777903098.360760,-1059,132,1775,-2,0,-1,-0.517090,0.064453,0.866699,-0.122070,0.000000,-0.061035,21.57,1
2897985342,24266.764999,1777903098.361775,-1060,131,1776,-2,-1,-1,-0.517578,0.063965,0.867188,-0.122070,-0.061035,-0.061035,21.53,0
2897986355,24266.765012,1777903098.362789,-1061,129,1777,-2,-2,0,-0.518066,0.062988,0.867676,-0.122070,-0.122070,0.000000,21.60,0
2897987365,24266.765019,1777903098.363800,-1060,128,1776,-2,-2,0,-0.517578,0.062500,0.867188,-0.122070,-0.122070,0.000000,21.71,0
2897988379,24266.765025,1777903098.364815,-1059,129,1772,-2,-2,0,-0.517090,0.062988,0.865234,-0.122070,-0.122070,0.000000,21.51,0
2897989392,24266.773025,1777903098.365829,-1059,129,1774,-2,-3,0,-0.517090,0.062988,0.866211,-0.122070,-0.183105,0.000000,21.65,0
2897990403,24266.773044,1777903098.366841,-1060,127,1774,-3,-3,0,-0.517578,0.062012,0.866211,-0.183105,-0.183105,0.000000,21.54,0
2897991414,24266.773055,1777903098.367853,-1061,128,1773,-2,-2,-1,-0.518066,0.062500,0.865723,-0.122070,-0.122070,-0.061035,21.50,0
2897992429,24266.773066,1777903098.368869,-1060,130,1774,-2,-2,-1,-0.517578,0.063477,0.866211,-0.122070,-0.122070,-0.061035,21.54,0
2897993440,24266.773076,1777903098.369881,-1061,130,1777,-3,-2,-1,-0.518066,0.063477,0.867676,-0.183105,-0.122070,-0.061035,21.47,0
2897994452,24266.773087,1777903098.370894,-1064,130,1778,-3,-2,0,-0.519531,0.063477,0.868164,-0.183105,-0.122070,0.000000,21.74,0
2897995465,24266.773135,1777903098.371907,-1062,131,1775,-2,-2,0,-0.518555,0.063965,0.866699,-0.122070,-0.122070,0.000000,21.60,1
2897996477,24266.773147,1777903098.372921,-1060,131,1773,-2,-2,0,-0.517578,0.063965,0.865723,-0.122070,-0.122070,0.000000,21.56,0
2897997490,24266.781102,1777903098.373890,-1060,129,1773,-2,-3,-1,-0.517578,0.062988,0.865723,-0.122070,-0.183105,-0.061035,21.56,0
2897998500,24266.781121,1777903098.374901,-1058,127,1774,-2,-3,-1,-0.516602,0.062012,0.866211,-0.122070,-0.183105,-0.061035,21.47,0
2897999512,24266.781132,1777903098.375913,-1057,128,1774,-2,-3,-2,-0.516113,0.062500,0.866211,-0.122070,-0.183105,-0.122070,21.57,0
2898000526,24266.781143,1777903098.376928,-1059,129,1772,-2,-2,-1,-0.517090,0.062988,0.865234,-0.122070,-0.122070,-0.061035,21.56,0
2898001538,24266.781154,1777903098.377941,-1061,127,1771,-2,-2,-1,-0.518066,0.062012,0.864746,-0.122070,-0.122070,-0.061035,21.59,0
2898002549,24266.781165,1777903098.378953,-1060,128,1774,-2,-2,-1,-0.517578,0.062500,0.866211,-0.122070,-0.122070,-0.061035,21.59,0
2898003561,24266.781176,1777903098.379966,-1057,131,1773,-2,-2,-1,-0.516113,0.063965,0.865723,-0.122070,-0.122070,-0.061035,21.48,0
2898004573,24266.781187,1777903098.380979,-1059,129,1769,-3,-1,-1,-0.517090,0.062988,0.863770,-0.183105,-0.061035,-0.061035,21.56,0
2898005586,24266.789210,1777903098.381992,-1061,126,1771,-3,-1,0,-0.518066,0.061523,0.864746,-0.183105,-0.061035,0.000000,21.51,0
2898006600,24266.789232,1777903098.382957,-1060,125,1774,-3,-1,0,-0.517578,0.061035,0.866211,-0.183105,-0.061035,0.000000,21.59,1
2898007612,24266.789246,1777903098.383969,-1060,127,1774,-2,-1,-1,-0.517578,0.062012,0.866211,-0.122070,-0.061035,-0.061035,21.56,0
2898008623,24266.789256,1777903098.384981,-1062,128,1774,-2,-1,-1,-0.518555,0.062500,0.866211,-0.122070,-0.061035,-0.061035,21.53,0
2898009637,24266.789267,1777903098.385996,-1060,128,1776,-2,-1,-1,-0.517578,0.062500,0.867188,-0.122070,-0.061035,-0.061035,21.47,0
2898010649,24266.789277,1777903098.387008,-1059,129,1774,-2,-1,-1,-0.517090,0.062988,0.866211,-0.122070,-0.061035,-0.061035,21.65,0
2898011659,24266.789286,1777903098.388019,-1061,128,1774,-3,-1,-2,-0.518066,0.062500,0.866211,-0.183105,-0.061035,-0.122070,21.45,0
2898012673,24266.789296,1777903098.389034,-1063,127,1777,-3,-1,-2,-0.519043,0.062012,0.867676,-0.183105,-0.061035,-0.122070,21.51,0
2898013684,24266.797308,1777903098.390046,-1061,127,1775,-3,-2,-1,-0.518066,0.062012,0.866699,-0.183105,-0.122070,-0.061035,21.51,0
2898014698,24266.797325,1777903098.391060,-1061,129,1773,-3,-2,-1,-0.518066,0.062988,0.865723,-0.183105,-0.122070,-0.061035,21.56,0
2898015709,24266.797333,1777903098.392072,-1061,130,1776,-3,-2,0,-0.518066,0.063477,0.867188,-0.183105,-0.122070,0.000000,21.59,0
2898016722,24266.797340,1777903098.393086,-1062,130,1777,-2,-1,0,-0.518555,0.063477,0.867676,-0.122070,-0.061035,0.000000,21.41,0
2898017733,24266.797347,1777903098.394053,-1062,129,1772,-3,-1,-1,-0.518555,0.062988,0.865234,-0.183105,-0.061035,-0.061035,21.53,1
2898018747,24266.797354,1777903098.395067,-1059,128,1769,-3,-2,-2,-0.517090,0.062500,0.863770,-0.183105,-0.122070,-0.122070,21.62,0
2898019759,24266.797361,1777903098.396080,-1059,129,1770,-2,-2,-1,-0.517090,0.062988,0.864258,-0.122070,-0.122070,-0.061035,21.59,0
2898020769,24266.797368,1777903098.397091,-1062,130,1770,-1,-2,0,-0.518555,0.063477,0.864258,-0.061035,-0.122070,0.000000,21.47,0
2898021784,24266.805426,1777903098.398106,-1061,128,1771,-1,-1,-1,-0.518066,0.062500,0.864746,-0.061035,-0.061035,-0.061035,21.57,0
2898022795,24266.805447,1777903098.399118,-1060,127,1776,-1,-1,-1,-0.517578,0.062012,0.867188,-0.061035,-0.061035,-0.061035,21.62,0
2898023809,24266.805455,1777903098.400133,-1061,129,1776,-2,-1,-1,-0.518066,0.062988,0.867188,-0.122070,-0.061035,-0.061035,21.56,0
2898024821,24266.805462,1777903098.401145,-1059,129,1774,-3,-2,0,-0.517090,0.062988,0.866211,-0.183105,-0.122070,0.000000,21.54,0
2898025832,24266.805469,1777903098.402157,-1057,126,1772,-3,-2,0,-0.516113,0.061523,0.865234,-0.183105,-0.122070,0.000000,21.51,0
2898026844,24266.805475,1777903098.403170,-1058,127,1771,-2,-2,0,-0.516602,0.062012,0.864746,-0.122070,-0.122070,0.000000,21.54,0
2898027857,24266.805482,1777903098.404183,-1059,130,1771,-1,-3,0,-0.517090,0.063477,0.864746,-0.061035,-0.183105,0.000000,21.59,0
2898028869,24266.805489,1777903098.405196,-1061,133,1769,-2,-2,0,-0.518066,0.064941,0.863770,-0.122070,-0.122070,0.000000,21.48,1
2898029880,24266.813514,1777903098.406169,-1063,132,1768,-3,-1,0,-0.519043,0.064453,0.863281,-0.183105,-0.061035,0.000000,21.53,0
2898030892,24266.813530,1777903098.407181,-1063,132,1771,-2,-1,0,-0.519043,0.064453,0.864746,-0.122070,-0.061035,0.000000,21.59,0
2898031904,24266.813537,1777903098.408194,-1058,133,1774,-2,-1,-1,-0.516602,0.064941,0.866211,-0.122070,-0.061035,-0.061035,21.53,0
2898032919,24266.813544,1777903098.409209,-1057,130,1775,-2,-1,-1,-0.516113,0.063477,0.866699,-0.122070,-0.061035,-0.061035,21.66,0
2898033932,24266.813551,1777903098.410223,-1060,129,1773,-2,-1,0,-0.517578,0.062988,0.865723,-0.122070,-0.061035,0.000000,21.53,0
2898034944,24266.813558,1777903098.411236,-1061,129,1771,-2,-2,0,-0.518066,0.062988,0.864746,-0.122070,-0.122070,0.000000,21.62,0
2898035956,24266.813565,1777903098.412248,-1059,132,1773,-2,-2,-1,-0.517090,0.064453,0.865723,-0.122070,-0.122070,-0.061035,21.51,0
2898036966,24266.813571,1777903098.413259,-1057,133,1774,-3,-1,-2,-0.516113,0.064941,0.866211,-0.183105,-0.061035,-0.122070,21.44,0
2898037978,24266.821610,1777903098.414271,-1059,131,1771,-3,-2,-1,-0.517090,0.063965,0.864746,-0.183105,-0.122070,-0.061035,21.51,0
2898038992,24266.821634,1777903098.415286,-1059,129,1771,-2,-2,-1,-0.517090,0.062988,0.864746,-0.122070,-0.122070,-0.061035,21.53,0
2898040005,24266.821646,1777903098.416259,-1059,129,1773,0,-2,0,-0.517090,0.062988,0.865723,0.000000,-0.122070,0.000000,21.68,1
2898041017,24266.821657,1777903098.417272,-1060,129,1773,-1,-2,0,-0.517578,0.062988,0.865723,-0.061035,-0.122070,0.000000,21.50,0
2898042029,24266.821668,1777903098.418284,-1059,129,1773,-2,-1,-1,-0.517090,0.062988,0.865723,-0.122070,-0.061035,-0.061035,21.59,0
2898043040,24266.821678,1777903098.419296,-1059,128,1773,-2,-1,-1,-0.517090,0.062500,0.865723,-0.122070,-0.061035,-0.061035,21.56,0
2898044052,24266.821688,1777903098.420308,-1063,128,1772,-2,-1,0,-0.519043,0.062500,0.865234,-0.122070,-0.061035,0.000000,21.59,0
2898045066,24266.821699,1777903098.421323,-1061,130,1772,-2,-2,0,-0.518066,0.063477,0.865234,-0.122070,-0.122070,0.000000,21.68,0
2898046078,24266.829686,1777903098.422335,-1057,129,1771,-1,-2,0,-0.516113,0.062988,0.864746,-0.061035,-0.122070,0.000000,21.54,0
2898047096,24266.829702,1777903098.423354,-1060,127,1772,-2,0,-1,-0.517578,0.062012,0.865234,-0.122070,0.000000,-0.061035,21.62,0
2898048104,24266.829710,1777903098.424362,-1061,128,1773,-2,-1,-1,-0.518066,0.062500,0.865723,-0.122070,-0.061035,-0.061035,21.51,0
2898049115,24266.829717,1777903098.425374,-1059,129,1772,-2,-2,-1,-0.517090,0.062988,0.865234,-0.122070,-0.122070,-0.061035,21.89,0
2898050127,24266.829724,1777903098.426386,-1058,130,1771,-2,-2,-1,-0.516602,0.063477,0.864746,-0.122070,-0.122070,-0.061035,21.54,0
2898051138,24266.829731,1777903098.427397,-1058,133,1771,-3,-2,0,-0.516602,0.064941,0.864746,-0.183105,-0.122070,0.000000,21.56,1
2898052151,24266.829738,1777903098.428411,-1058,129,1771,-3,-3,0,-0.516602,0.062988,0.864746,-0.183105,-0.183105,0.000000,21.53,0
2898053162,24266.829745,1777903098.429422,-1059,126,1771,-2,-2,0,-0.517090,0.061523,0.864746,-0.122070,-0.122070,0.000000,21.57,0
2898054174,24266.837807,1777903098.430401,-1062,129,1772,-2,-1,0,-0.518555,0.062988,0.865234,-0.122070,-0.061035,0.000000,21.68,0
2898055188,24266.837839,1777903098.431416,-1061,131,1770,-3,-1,0,-0.518066,0.063965,0.864258,-0.183105,-0.061035,0.000000,21.53,0
2898056200,24266.837846,1777903098.432428,-1057,131,1770,-4,-2,-1,-0.516113,0.063965,0.864258,-0.244141,-0.122070,-0.061035,21.53,0
2898057211,24266.837853,1777903098.433440,-1056,132,1772,-3,-3,-2,-0.515625,0.064453,0.865234,-0.183105,-0.183105,-0.122070,21.48,0
2898058223,24266.837884,1777903098.434452,-1062,130,1772,-2,-2,-1,-0.518555,0.063477,0.865234,-0.122070,-0.122070,-0.061035,21.47,0
2898059237,24266.837891,1777903098.435467,-1064,126,1772,-2,-2,0,-0.519531,0.061523,0.865234,-0.122070,-0.122070,0.000000,21.53,0
2898060249,24266.837897,1777903098.436479,-1060,126,1773,-1,-2,1,-0.517578,0.061523,0.865723,-0.061035,-0.122070,0.061035,21.48,0
2898061261,24266.837904,1777903098.437491,-1060,129,1773,-1,-2,1,-0.517578,0.062988,0.865723,-0.061035,-0.122070,0.061035,21.54,0
2898062274,24266.845978,1777903098.438470,-1062,131,1769,-1,-2,0,-0.518555,0.063965,0.863770,-0.061035,-0.122070,0.000000,21.53,1
2898063287,24266.846017,1777903098.439483,-1061,131,1769,-3,-2,-1,-0.518066,0.063965,0.863770,-0.183105,-0.122070,-0.061035,21.57,0
2898064297,24266.846025,1777903098.440493,-1060,129,1772,-3,-1,-1,-0.517578,0.062988,0.865234,-0.183105,-0.061035,-0.061035,21.48,0
2898065310,24266.846033,1777903098.441507,-1060,126,1772,-2,-1,-1,-0.517578,0.061523,0.865234,-0.122070,-0.061035,-0.061035,21.56,0
2898066324,24266.846040,1777903098.442521,-1061,125,1772,-2,-1,-1,-0.518066,0.061035,0.865234,-0.122070,-0.061035,-0.061035,21.50,0
2898067334,24266.846047,1777903098.443531,-1060,126,1776,-2,-2,-1,-0.517578,0.061523,0.867188,-0.122070,-0.122070,-0.061035,21.57,0
2898068348,24266.846053,1777903098.444546,-1059,127,1776,-1,-1,-1,-0.517090,0.062012,0.867188,-0.061035,-0.061035,-0.061035,21.47,0
2898069361,24266.846060,1777903098.445559,-1060,128,1774,-1,-1,-1,-0.517578,0.062500,0.866211,-0.061035,-0.061035,-0.061035,21.42,0
2898070372,24266.854020,1777903098.446570,-1059,132,1770,-3,-1,-1,-0.517090,0.064453,0.864258,-0.183105,-0.061035,-0.061035,21.50,0
2898071383,24266.854042,1777903098.447582,-1059,132,1770,-3,-1,0,-0.517090,0.064453,0.864258,-0.183105,-0.061035,0.000000,21.44,0
2898072395,24266.854054,1777903098.448594,-1061,129,1773,-2,-1,0,-0.518066,0.062988,0.865723,-0.122070,-0.061035,0.000000,21.54,0
2898073408,24266.854065,1777903098.449574,-1061,127,1772,-2,-1,0,-0.518066,0.062012,0.865234,-0.122070,-0.061035,0.000000,21.48,1
2898074421,24266.854076,1777903098.450588,-1059,127,1767,-3,-1,-1,-0.517090,0.062012,0.862793,-0.183105,-0.061035,-0.061035,21.56,0
2898075432,24266.854087,1777903098.451599,-1059,127,1768,-3,-2,0,-0.517090,0.062012,0.863281,-0.183105,-0.122070,0.000000,21.53,0
2898076447,24266.854097,1777903098.452614,-1062,126,1771,-1,-1,0,-0.518555,0.061523,0.864746,-0.061035,-0.061035,0.000000,21.48,0
2898077457,24266.854108,1777903098.453624,-1059,129,1770,-1,-1,-1,-0.517090,0.062988,0.864258,-0.061035,-0.061035,-0.061035,21.53,0
2898078469,24266.862083,1777903098.454637,-1056,132,1770,-2,-1,0,-0.515625,0.064453,0.864258,-0.122070,-0.061035,0.000000,21.57,0
2898079483,24266.862103,1777903098.455651,-1057,128,1769,-3,-1,0,-0.516113,0.062500,0.863770,-0.183105,-0.061035,0.000000,21.56,0
2898080493,24266.862114,1777903098.456661,-1060,126,1768,-2,-1,0,-0.517578,0.061523,0.863281,-0.122070,-0.061035,0.000000,21.56,0
2898081507,24266.862125,1777903098.457675,-1062,127,1771,-2,-2,0,-0.518555,0.062012,0.864746,-0.122070,-0.122070,0.000000,21.59,0
2898082520,24266.862147,1777903098.458689,-1058,125,1778,-2,-2,-1,-0.516602,0.061035,0.868164,-0.122070,-0.122070,-0.061035,21.54,0
2898083531,24266.862158,1777903098.459700,-1056,127,1780,-3,-2,-2,-0.515625,0.062012,0.869141,-0.183105,-0.122070,-0.122070,21.47,0
2898084543,24266.862169,1777903098.460712,-1058,132,1774,-2,-2,-1,-0.516602,0.064453,0.866211,-0.122070,-0.122070,-0.061035,21.72,1
2898085556,24266.862190,1777903098.461725,-1058,130,1770,-2,-2,0,-0.516602,0.063477,0.864258,-0.122070,-0.122070,0.000000,21.53,0
2898086569,24266.870192,1777903098.462713,-1058,127,1772,-2,-2,-1,-0.516602,0.062012,0.865234,-0.122070,-0.122070,-0.061035,21.53,0
2898087581,24266.870210,1777903098.463725,-1060,127,1774,-3,-1,-1,-0.517578,0.062012,0.866211,-0.183105,-0.061035,-0.061035,21.48,0
2898088594,24266.870221,1777903098.464738,-1059,129,1775,-3,-2,-1,-0.517090,0.062988,0.866699,-0.183105,-0.122070,-0.061035,21.62,0
2898089606,24266.870232,1777903098.465750,-1059,131,1775,-2,-2,0,-0.517090,0.063965,0.866699,-0.122070,-0.122070,0.000000,21.50,0
2898090618,24266.870243,1777903098.466763,-1062,127,1770,-2,-2,1,-0.518555,0.062012,0.864258,-0.122070,-0.122070,0.061035,21.65,0
2898091630,24266.870254,1777903098.467775,-1061,128,1768,-2,-1,1,-0.518066,0.062500,0.863281,-0.122070,-0.061035,0.061035,21.53,0
2898092642,24266.870264,1777903098.468787,-1060,133,1774,-1,-1,-1,-0.517578,0.064941,0.866211,-0.061035,-0.061035,-0.061035,21.62,0
2898093655,24266.870275,1777903098.469800,-1062,132,1775,-1,-1,-2,-0.518555,0.064453,0.866699,-0.061035,-0.061035,-0.122070,21.53,0
2898094666,24266.878365,1777903098.470812,-1058,129,1771,-2,-1,-1,-0.516602,0.062988,0.864746,-0.122070,-0.061035,-0.061035,21.54,0
2898095677,24266.878380,1777903098.471792,-1054,128,1774,-4,-1,0,-0.514648,0.062500,0.866211,-0.244141,-0.061035,0.000000,21.56,1
2898096691,24266.878388,1777903098.472807,-1056,129,1779,-4,-2,0,-0.515625,0.062988,0.868652,-0.244141,-0.122070,0.000000,21.56,0
2898097704,24266.878396,1777903098.473820,-1061,129,1778,-2,-2,0,-0.518066,0.062988,0.868164,-0.122070,-0.122070,0.000000,21.53,0
2898098715,24266.878403,1777903098.474831,-1061,127,1774,-1,-1,0,-0.518066,0.062012,0.866211,-0.061035,-0.061035,0.000000,21.59,0
2898099728,24266.878410,1777903098.475844,-1058,126,1776,-1,-2,-1,-0.516602,0.061523,0.867188,-0.061035,-0.122070,-0.061035,21.56,0
2898100741,24266.878417,1777903098.476857,-1057,126,1779,-1,-2,-2,-0.516113,0.061523,0.868652,-0.061035,-0.122070,-0.122070,21.71,0
2898101752,24266.878424,1777903098.477869,-1058,126,1775,-2,-2,-1,-0.516602,0.061523,0.866699,-0.122070,-0.122070,-0.061035,21.47,0
2898102763,24266.886363,1777903098.478880,-1057,128,1773,-2,-2,0,-0.516113,0.062500,0.865723,-0.122070,-0.122070,0.000000,21.47,0
2898103777,24266.886392,1777903098.479894,-1057,128,1772,-2,-2,0,-0.516113,0.062500,0.865234,-0.122070,-0.122070,0.000000,21.56,0
2898104790,24266.886403,1777903098.480907,-1059,129,1772,-3,-1,0,-0.517090,0.062988,0.865234,-0.183105,-0.061035,0.000000,21.62,0
2898105800,24266.886415,1777903098.481917,-1060,132,1774,-3,-2,0,-0.517578,0.064453,0.866211,-0.183105,-0.122070,0.000000,21.50,0
2898106813,24266.886426,1777903098.482904,-1060,129,1774,-3,-2,-1,-0.517578,0.062988,0.866211,-0.183105,-0.122070,-0.061035,21.54,1
2898107827,24266.886437,1777903098.483918,-1060,127,1772,-3,-1,-1,-0.517578,0.062012,0.865234,-0.183105,-0.061035,-0.061035,21.54,0
2898108839,24266.886448,1777903098.484930,-1059,132,1773,-3,-1,-1,-0.517090,0.064453,0.865723,-0.183105,-0.061035,-0.061035,21.53,0
2898109850,24266.886459,1777903098.485941,-1057,132,1776,-2,-1,-1,-0.516113,0.064453,0.867188,-0.122070,-0.061035,-0.061035,21.53,0
2898110863,24266.894484,1777903098.486954,-1057,131,1773,-2,-1,-1,-0.516113,0.063965,0.865723,-0.122070,-0.061035,-0.061035,21.56,0
2898111873,24266.894500,1777903098.487964,-1060,131,1772,-3,-1,0,-0.517578,0.063965,0.865234,-0.183105,-0.061035,0.000000,21.50,0
2898112886,24266.894508,1777903098.488978,-1060,130,1773,-4,-2,0,-0.517578,0.063477,0.865723,-0.244141,-0.122070,0.000000,21.65,0
2898113898,24266.894515,1777903098.489990,-1057,128,1771,-3,-3,0,-0.516113,0.062500,0.864746,-0.183105,-0.183105,0.000000,21.56,0
2898114912,24266.894522,1777903098.491004,-1059,127,1771,-3,-3,0,-0.517090,0.062012,0.864746,-0.183105,-0.183105,0.000000,21.59,0
2898115924,24266.894529,1777903098.492016,-1062,127,1775,-3,-2,-1,-0.518555,0.062012,0.866699,-0.183105,-0.122070,-0.061035,21.56,0
2898116937,24266.894536,1777903098.493029,-1062,130,1776,-3,-1,-1,-0.518555,0.063477,0.867188,-0.183105,-0.061035,-0.061035,21.53,0
2898117947,24266.894543,1777903098.494039,-1061,130,1775,-3,-2,-1,-0.518066,0.063477,0.866699,-0.183105,-0.122070,-0.061035,21.53,1
2898118959,24266.902610,1777903098.495023,-1062,126,1775,-2,-2,-1,-0.518555,0.061523,0.866699,-0.122070,-0.122070,-0.061035,21.62,0
2898119973,24266.902634,1777903098.496038,-1060,125,1775,-2,-2,-1,-0.517578,0.061035,0.866699,-0.122070,-0.122070,-0.061035,21.54,0
2898120986,24266.902642,1777903098.497051,-1059,128,1772,-2,-2,0,-0.517090,0.062500,0.865234,-0.122070,-0.122070,0.000000,21.54,0
2898121999,24266.902697,1777903098.498064,-1062,131,1771,-2,-2,0,-0.518555,0.063965,0.864746,-0.122070,-0.122070,0.000000,21.59,0
2898123010,24266.902704,1777903098.499075,-1062,131,1769,-3,-2,-1,-0.518555,0.063965,0.863770,-0.183105,-0.122070,-0.061035,21.53,0
2898124021,24266.902712,1777903098.500086,-1056,128,1766,-4,-2,0,-0.515625,0.062500,0.862305,-0.244141,-0.122070,0.000000,21.62,0
2898125033,24266.902719,1777903098.501098,-1055,126,1772,-5,-2,0,-0.515137,0.061523,0.865234,-0.305176,-0.122070,0.000000,21.56,0
2898126048,24266.902726,1777903098.502113,-1060,128,1774,-3,-1,-1,-0.517578,0.062500,0.866211,-0.183105,-0.061035,-0.061035,21.53,0
2898127058,24266.910687,1777903098.503123,-1061,130,1770,-2,-1,-1,-0.518066,0.063477,0.864258,-0.122070,-0.061035,-0.061035,21.50,0
2898128071,24266.910705,1777903098.504136,-1059,131,1772,-3,-1,0,-0.517090,0.063965,0.865234,-0.183105,-0.061035,0.000000,21.54,0
2898129099,24266.910712,1777903098.505140,-1059,130,1775,-3,-2,-1,-0.517090,0.063477,0.866699,-0.183105,-0.122070,-0.061035,21.51,1
2898130098,24266.910720,1777903098.506139,-1060,129,1772,-3,-2,-1,-0.517578,0.062988,0.865234,-0.183105,-0.122070,-0.061035,21.48,0
2898131108,24266.910727,1777903098.507149,-1062,131,1772,-3,-2,0,-0.518555,0.063965,0.865234,-0.183105,-0.122070,0.000000,21.50,0
2898132119,24266.910734,1777903098.508160,-1062,133,1774,-3,-1,0,-0.518555,0.064941,0.866211,-0.183105,-0.061035,0.000000,21.51,0
2898133133,24266.910740,1777903098.509174,-1063,132,1773,-2,-1,-1,-0.519043,0.064453,0.865723,-0.122070,-0.061035,-0.061035,21.53,0
2898134146,24266.910747,1777903098.510187,-1062,128,1774,-2,-2,-1,-0.518555,0.062500,0.866211,-0.122070,-0.122070,-0.061035,21.50,0
2898135158,24266.918756,1777903098.511199,-1063,125,1772,-3,-2,-2,-0.519043,0.061035,0.865234,-0.183105,-0.122070,-0.122070,21.65,0
2898136169,24266.918775,1777903098.512210,-1064,127,1768,-3,-2,-1,-0.519531,0.062012,0.863281,-0.183105,-0.122070,-0.061035,21.65,0
2898137181,24266.918783,1777903098.513222,-1060,129,1768,-2,-1,0,-0.517578,0.062988,0.863281,-0.122070,-0.061035,0.000000,21.60,0
2898138194,24266.918790,1777903098.514235,-1055,131,1774,-3,-1,-1,-0.515137,0.063965,0.866211,-0.183105,-0.061035,-0.061035,21.56,0
2898139205,24266.918797,1777903098.515246,-1056,131,1775,-2,-2,-2,-0.515625,0.063965,0.866699,-0.122070,-0.122070,-0.122070,21.53,0
2898140218,24266.918804,1777903098.516259,-1058,129,1773,-2,-2,-1,-0.516602,0.062988,0.865723,-0.122070,-0.122070,-0.061035,21.53,1
2898141229,24266.918835,1777903098.517270,-1058,126,1774,-2,-1,0,-0.516602,0.061523,0.866211,-0.122070,-0.061035,0.000000,21.51,0
2898142243,24266.918842,1777903098.518284,-1058,128,1773,-1,0,-1,-0.516602,0.062500,0.865723,-0.061035,0.000000,-0.061035,21.44,0
2898143255,24266.926856,1777903098.519270,-1060,132,1773,-2,0,-1,-0.517578,0.064453,0.865723,-0.122070,0.000000,-0.061035,21.51,0
2898144267,24266.926868,1777903098.520282,-1062,131,1772,-3,-1,0,-0.518555,0.063965,0.865234,-0.183105,-0.061035,0.000000,21.53,0
2898145279,24266.926875,1777903098.521294,-1061,129,1768,-2,-2,0,-0.518066,0.062988,0.863281,-0.122070,-0.122070,0.000000,21.56,0
2898146293,24266.926886,1777903098.522308,-1059,129,1772,-2,-2,0,-0.517090,0.062988,0.865234,-0.122070,-0.122070,0.000000,21.57,0
2898147304,24266.926894,1777903098.523319,-1058,125,1776,-2,-1,-2,-0.516602,0.061035,0.867188,-0.122070,-0.061035,-0.122070,21.57,0
2898148318,24266.926900,1777903098.524333,-1059,126,1775,-2,-1,-2,-0.517090,0.061523,0.866699,-0.122070,-0.061035,-0.122070,21.68,0
2898149329,24266.926907,1777903098.525344,-1059,132,1772,-2,-2,-1,-0.517090,0.064453,0.865234,-0.122070,-0.122070,-0.061035,21.57,0
2898150341,24266.926914,1777903098.526356,-1058,130,1769,-2,-2,0,-0.516602,0.063477,0.863770,-0.122070,-0.122070,0.000000,21.48,0
2898151352,24266.934970,1777903098.527348,-1060,126,1770,-1,-1,0,-0.517578,0.061523,0.864258,-0.061035,-0.061035,0.000000,21.48,1
2898152366,24266.934995,1777903098.528362,-1063,129,1774,-2,-2,-1,-0.519043,0.062988,0.866211,-0.122070,-0.122070,-0.061035,21.50,0
2898153378,24266.935008,1777903098.529374,-1061,129,1773,-2,-2,-1,-0.518066,0.062988,0.865723,-0.122070,-0.122070,-0.061035,21.66,0
2898154390,24266.935015,1777903098.530386,-1058,126,1774,-2,-2,-1,-0.516602,0.061523,0.866211,-0.122070,-0.122070,-0.061035,21.66,0
2898155403,24266.935022,1777903098.531399,-1059,126,1778,-2,-2,-1,-0.517090,0.061523,0.868164,-0.122070,-0.122070,-0.061035,21.59,0
2898156415,24266.935029,1777903098.532411,-1059,129,1777,-2,-3,-1,-0.517090,0.062988,0.867676,-0.122070,-0.183105,-0.061035,21.65,0
2898157426,24266.935036,1777903098.533422,-1060,132,1772,-3,-2,0,-0.517578,0.064453,0.865234,-0.183105,-0.122070,0.000000,21.53,0
2898158440,24266.935043,1777903098.534436,-1060,133,1768,-3,-2,1,-0.517578,0.064941,0.863281,-0.183105,-0.122070,0.061035,21.48,0
2898159452,24266.943069,1777903098.535448,-1059,131,1768,-2,-1,-1,-0.517090,0.063965,0.863281,-0.122070,-0.061035,-0.061035,21.45,0
2898160464,24266.943085,1777903098.536460,-1061,130,1769,-3,-1,-3,-0.518066,0.063477,0.863770,-0.183105,-0.061035,-0.183105,21.57,0
2898161477,24266.943092,1777903098.537472,-1060,132,1770,-4,-1,-2,-0.517578,0.064453,0.864258,-0.244141,-0.061035,-0.122070,21.62,0
2898162487,24266.943100,1777903098.538460,-1059,133,1773,-4,-2,-2,-0.517090,0.064941,0.865723,-0.244141,-0.122070,-0.122070,21.54,1
2898163501,24266.943108,1777903098.539474,-1059,132,1776,-3,-1,-2,-0.517090,0.064453,0.867188,-0.183105,-0.061035,-0.122070,21.62,0
2898164511,24266.943115,1777903098.540484,-1059,132,1776,-3,-2,-2,-0.517090,0.064453,0.867188,-0.183105,-0.122070,-0.122070,21.44,0
2898165526,24266.943122,1777903098.541499,-1061,130,1774,-2,-2,-1,-0.518066,0.063477,0.866211,-0.122070,-0.122070,-0.061035,21.47,0
2898166537,24266.943129,1777903098.542510,-1062,130,1774,-1,0,-1,-0.518555,0.063477,0.866211,-0.061035,0.000000,-0.061035,21.48,0
2898167550,24266.951155,1777903098.543523,-1060,132,1773,-2,0,0,-0.517578,0.064453,0.865723,-0.122070,0.000000,0.000000,21.48,0
2898168562,24266.951170,1777903098.544535,-1060,131,1772,-3,-1,0,-0.517578,0.063965,0.865234,-0.183105,-0.061035,0.000000,21.66,0
2898169573,24266.951181,1777903098.545546,-1059,130,1771,-4,-1,-1,-0.517090,0.063477,0.864746,-0.244141,-0.061035,-0.061035,21.50,0
2898170585,24266.951189,1777903098.546558,-1059,129,1769,-4,0,-1,-0.517090,0.062988,0.863770,-0.244141,0.000000,-0.061035,21.56,0
2898171599,24266.951196,1777903098.547572,-1060,130,1770,-3,-1,0,-0.517578,0.063477,0.864258,-0.183105,-0.061035,0.000000,21.56,0
2898172611,24266.951203,1777903098.548584,-1059,131,1772,-3,-1,1,-0.517090,0.063965,0.865234,-0.183105,-0.061035,0.061035,21.66,0
2898173622,24266.951210,1777903098.549594,-1059,128,1769,-2,0,1,-0.517090,0.062500,0.863770,-0.122070,0.000000,0.061035,21.45,1
2898174635,24266.951217,1777903098.550607,-1058,127,1767,-2,-1,0,-0.516602,0.062012,0.862793,-0.122070,-0.061035,0.000000,21.59,0
2898175647,24266.959270,1777903098.551596,-1057,130,1773,-2,-1,0,-0.516113,0.063477,0.865723,-0.122070,-0.061035,0.000000,21.50,0
2898176659,24266.959292,1777903098.552608,-1060,131,1776,-3,-1,-1,-0.517578,0.063965,0.867188,-0.183105,-0.061035,-0.061035,21.50,0
2898177672,24266.959301,1777903098.553621,-1062,131,1773,-3,-2,-1,-0.518555,0.063965,0.865723,-0.183105,-0.122070,-0.061035,21.59,0
2898178684,24266.959310,1777903098.554632,-1059,126,1773,-2,-2,-1,-0.517090,0.061523,0.865723,-0.122070,-0.122070,-0.061035,21.59,0
2898179696,24266.959319,1777903098.555644,-1060,123,1776,-3,-1,0,-0.517578,0.060059,0.867188,-0.183105,-0.061035,0.000000,21.56,0
2898180710,24266.959328,1777903098.556658,-1061,127,1776,-3,-1,-1,-0.518066,0.062012,0.867188,-0.183105,-0.061035,-0.061035,21.48,0
2898181722,24266.959337,1777903098.557670,-1060,129,1775,-3,-1,-2,-0.517578,0.062988,0.866699,-0.183105,-0.061035,-0.122070,21.53,0
2898182732,24266.959346,1777903098.558680,-1062,131,1773,-2,-1,-2,-0.518555,0.063965,0.865723,-0.122070,-0.061035,-0.122070,21.47,0
2898183747,24266.967371,1777903098.559695,-1063,131,1773,-2,-2,-1,-0.519043,0.063965,0.865723,-0.122070,-0.122070,-0.061035,21.56,0
2898184758,24266.967436,1777903098.560689,-1061,131,1774,-2,-2,0,-0.518066,0.063965,0.866211,-0.122070,-0.122070,0.000000,21.53,1
2898185769,24266.967449,1777903098.561700,-1060,133,1770,-3,-3,0,-0.517578,0.064941,0.864258,-0.183105,-0.183105,0.000000,21.48,0
2898186781,24266.967459,1777903098.562712,-1061,130,1768,-3,-2,-1,-0.518066,0.063477,0.863281,-0.183105,-0.122070,-0.061035,21.50,0
2898187795,24266.967470,1777903098.563726,-1063,125,1770,-2,-2,-2,-0.519043,0.061035,0.864258,-0.122070,-0.122070,-0.122070,21.54,0
2898188806,24266.967481,1777903098.564737,-1061,126,1773,-2,-2,-2,-0.518066,0.061523,0.865723,-0.122070,-0.122070,-0.122070,21.45,0
2898189818,24266.967491,1777903098.565748,-1057,129,1771,-2,-1,-1,-0.516113,0.062988,0.864746,-0.122070,-0.061035,-0.061035,21.48,0
2898190832,24266.967502,1777903098.566762,-1056,130,1769,-3,-1,-1,-0.515625,0.063477,0.863770,-0.183105,-0.061035,-0.061035,21.50,0
2898191843,24266.975482,1777903098.567773,-1059,129,1772,-3,-1,-1,-0.517090,0.062988,0.865234,-0.183105,-0.061035,-0.061035,21.56,0
2898192855,24266.975529,1777903098.568785,-1061,129,1775,-3,-1,-1,-0.518066,0.062988,0.866699,-0.183105,-0.061035,-0.061035,21.57,0
2898193868,24266.975536,1777903098.569798,-1059,130,1770,-2,-2,-1,-0.517090,0.063477,0.864258,-0.122070,-0.122070,-0.061035,21.60,0
2898194881,24266.975543,1777903098.570811,-1056,129,1769,-3,-3,-2,-0.515625,0.062988,0.863770,-0.183105,-0.183105,-0.122070,21.68,0
2898195892,24266.975551,1777903098.571802,-1057,130,1771,-4,-3,-2,-0.516113,0.063477,0.864746,-0.244141,-0.183105,-0.122070,21.53,1
2898196904,24266.975560,1777903098.572814,-1057,131,1769,-3,-2,-2,-0.516113,0.063965,0.863770,-0.183105,-0.122070,-0.122070,21.53,0
2898197918,24266.975567,1777903098.573828,-1056,129,1771,-3,-2,-1,-0.515625,0.062988,0.864746,-0.183105,-0.122070,-0.061035,21.53,0
2898198931,24266.975574,1777903098.574840,-1058,129,1774,-3,-2,-1,-0.516602,0.062988,0.866211,-0.183105,-0.122070,-0.061035,21.50,0
2898199941,24266.983550,1777903098.575850,-1060,130,1773,-2,-2,-1,-0.517578,0.063477,0.865723,-0.122070,-0.122070,-0.061035,21.53,0
2898200953,24266.983571,1777903098.576862,-1060,129,1773,-2,-1,0,-0.517578,0.062988,0.865723,-0.122070,-0.061035,0.000000,21.57,0
2898201967,24266.983582,1777903098.577876,-1058,127,1773,-3,-1,-1,-0.516602,0.062012,0.865723,-0.183105,-0.061035,-0.061035,21.53,0
2898202980,24266.983593,1777903098.578888,-1059,126,1770,-2,-2,-1,-0.517090,0.061523,0.864258,-0.122070,-0.122070,-0.061035,21.65,0
2898203991,24266.983604,1777903098.579899,-1060,129,1771,-2,-2,0,-0.517578,0.062988,0.864746,-0.122070,-0.122070,0.000000,21.50,0
2898205004,24266.983614,1777903098.580912,-1061,129,1771,-3,-1,0,-0.518066,0.062988,0.864746,-0.183105,-0.061035,0.000000,21.53,0
2898206016,24266.983626,1777903098.581924,-1062,127,1771,-3,-1,-1,-0.518555,0.062012,0.864746,-0.183105,-0.061035,-0.061035,21.53,0
2898207027,24266.983637,1777903098.582935,-1059,128,1770,-3,-2,-1,-0.517090,0.062500,0.864258,-0.183105,-0.122070,-0.061035,21.54,1
2898208040,24266.991662,1777903098.583932,-1060,130,1773,-2,-2,-2,-0.517578,0.063477,0.865723,-0.122070,-0.122070,-0.122070,21.54,0
2898209051,24266.991679,1777903098.584943,-1062,130,1775,-3,-1,-2,-0.518555,0.063477,0.866699,-0.183105,-0.061035,-0.122070,21.71,0
2898210063,24266.991690,1777903098.585954,-1059,127,1772,-3,-2,0,-0.517090,0.062012,0.865234,-0.183105,-0.122070,0.000000,21.48,0
2898211078,24266.991698,1777903098.586969,-1056,125,1774,-2,-2,1,-0.515625,0.061035,0.866211,-0.122070,-0.122070,0.061035,21.39,0
2898212097,24266.991705,1777903098.587988,-1060,128,1777,-2,0,0,-0.517578,0.062500,0.867676,-0.122070,0.000000,0.000000,21.47,0
2898213101,24266.991712,1777903098.588992,-1063,130,1775,-2,0,0,-0.519043,0.063477,0.866699,-0.122070,0.000000,0.000000,21.59,0
2898214114,24266.991719,1777903098.590004,-1062,130,1773,-2,-1,0,-0.518555,0.063477,0.865723,-0.122070,-0.061035,0.000000,21.65,0
2898215127,24266.991726,1777903098.591017,-1061,130,1771,-1,-2,-1,-0.518066,0.063477,0.864746,-0.061035,-0.122070,-0.061035,21.60,0
2898216138,24266.999745,1777903098.592028,-1061,131,1771,-2,-2,-2,-0.518066,0.063965,0.864746,-0.122070,-0.122070,-0.122070,21.59,0
2898217150,24266.999757,1777903098.593040,-1061,130,1773,-3,-1,-1,-0.518066,0.063477,0.865723,-0.183105,-0.061035,-0.061035,21.59,0
2898218162,24266.999765,1777903098.594034,-1061,130,1774,-3,-1,0,-0.518066,0.063477,0.866211,-0.183105,-0.061035,0.000000,21.57,1
2898219175,24266.999772,1777903098.595047,-1059,133,1772,-3,-2,-1,-0.517090,0.064941,0.865234,-0.183105,-0.122070,-0.061035,21.53,0
2898220187,24266.999780,1777903098.596059,-1058,134,1775,-3,-2,-1,-0.516602,0.065430,0.866699,-0.183105,-0.122070,-0.061035,21.51,0
2898221200,24266.999787,1777903098.597071,-1061,130,1779,-2,-2,0,-0.518066,0.063477,0.868652,-0.122070,-0.122070,0.000000,21.59,0
2898222213,24266.999794,1777903098.598084,-1057,127,1773,-2,-1,-1,-0.516113,0.062012,0.865723,-0.122070,-0.061035,-0.061035,21.50,0
2898223224,24266.999801,1777903098.599095,-1055,127,1769,-3,-1,-2,-0.515137,0.062012,0.863770,-0.183105,-0.061035,-0.122070,21.59,0
