esp_timestamp_us,host_timestamp_s,unified_time_s,accel_x_raw,accel_y_raw,accel_z_raw,gyro_x_raw,gyro_y_raw,gyro_z_raw,accel_x_g,accel_y_g,accel_z_g,gyro_x_dps,gyro_y_dps,gyro_z_dps,temperature_c,fsync_flag
546612984,21915.465570,1777900747.043746,-1123,-1701,263,-3,-2,1,-0.548340,-0.830566,0.128418,-0.183105,-0.122070,0.061035,21.38,0
546613998,21915.465593,1777900747.044760,-1123,-1700,265,-3,-2,1,-0.548340,-0.830078,0.129395,-0.183105,-0.122070,0.061035,21.29,0
546615010,21915.465601,1777900747.045772,-1122,-1700,267,-3,-1,0,-0.547852,-0.830078,0.130371,-0.183105,-0.061035,0.000000,21.21,0
546616024,21915.465608,1777900747.046786,-1123,-1700,266,-3,-1,-1,-0.548340,-0.830078,0.129883,-0.183105,-0.061035,-0.061035,21.12,0
546617035,21915.465614,1777900747.047797,-1124,-1702,266,-2,-2,-1,-0.548828,-0.831055,0.129883,-0.122070,-0.122070,-0.061035,21.23,0
546618046,21915.465621,1777900747.048808,-1124,-1702,268,-3,-2,0,-0.548828,-0.831055,0.130859,-0.183105,-0.122070,0.000000,21.41,0
546619058,21915.465628,1777900747.049819,-1123,-1697,269,-3,-1,1,-0.548340,-0.828613,0.131348,-0.183105,-0.061035,0.061035,21.35,0
546620071,21915.465635,1777900747.050832,-1122,-1696,268,-2,-2,0,-0.547852,-0.828125,0.130859,-0.122070,-0.122070,0.000000,21.39,1
546621096,21915.473653,1777900747.065306,-1123,-1699,268,-3,-2,-2,-0.548340,-0.829590,0.130859,-0.183105,-0.122070,-0.122070,21.29,0
546622099,21915.473673,1777900747.066309,-1126,-1699,266,-3,-2,-2,-0.549805,-0.829590,0.129883,-0.183105,-0.122070,-0.122070,21.39,0
546623109,21915.473681,1777900747.067319,-1125,-1699,262,-2,-1,-1,-0.549316,-0.829590,0.127930,-0.122070,-0.061035,-0.061035,21.30,0
546624121,21915.473688,1777900747.068331,-1122,-1700,264,-3,-2,1,-0.547852,-0.830078,0.128906,-0.183105,-0.122070,0.061035,21.27,0
546625134,21915.473695,1777900747.069344,-1121,-1700,263,-4,-2,0,-0.547363,-0.830078,0.128418,-0.244141,-0.122070,0.000000,21.20,0
546626146,21915.473702,1777900747.070356,-1124,-1699,260,-3,-1,0,-0.548828,-0.829590,0.126953,-0.183105,-0.061035,0.000000,21.44,0
546627157,21915.473709,1777900747.071367,-1125,-1699,261,-3,-1,0,-0.549316,-0.829590,0.127441,-0.183105,-0.061035,0.000000,21.30,0
546628169,21915.473715,1777900747.072378,-1125,-1700,264,-3,-1,0,-0.549316,-0.830078,0.128906,-0.183105,-0.061035,0.000000,21.18,0
546629183,21915.481756,1777900747.073392,-1125,-1700,266,-3,0,-1,-0.549316,-0.830078,0.129883,-0.183105,0.000000,-0.061035,21.32,0
546630195,21915.481779,1777900747.074404,-1124,-1700,265,-2,0,-2,-0.548828,-0.830078,0.129395,-0.122070,0.000000,-0.122070,21.26,0
546631207,21915.481786,1777900747.075487,-1126,-1699,265,-2,-2,-1,-0.549805,-0.829590,0.129395,-0.122070,-0.122070,-0.061035,21.27,1
546632218,21915.481795,1777900747.076498,-1127,-1698,266,-1,-2,0,-0.550293,-0.829102,0.129883,-0.061035,-0.122070,0.000000,21.29,0
546633230,21915.481802,1777900747.077510,-1125,-1697,265,-2,-1,1,-0.549316,-0.828613,0.129395,-0.122070,-0.061035,0.061035,21.26,0
546634242,21915.481808,1777900747.078522,-1121,-1698,262,-4,-1,0,-0.547363,-0.829102,0.127930,-0.244141,-0.061035,0.000000,21.17,0
546635257,21915.481815,1777900747.079537,-1121,-1699,262,-4,-1,-2,-0.547363,-0.829590,0.127930,-0.244141,-0.061035,-0.122070,21.12,0
546636268,21915.481822,1777900747.080548,-1123,-1697,262,-2,-1,-1,-0.548340,-0.828613,0.127930,-0.122070,-0.061035,-0.061035,21.32,0
546637280,21915.489878,1777900747.081560,-1122,-1697,259,-2,-1,-1,-0.547852,-0.828613,0.126465,-0.122070,-0.061035,-0.061035,21.23,0
546638292,21915.489895,1777900747.082572,-1122,-1699,259,-3,-2,-1,-0.547852,-0.829590,0.126465,-0.183105,-0.122070,-0.061035,21.38,0
546639305,21915.489902,1777900747.083585,-1124,-1700,265,-3,-2,-1,-0.548828,-0.830078,0.129395,-0.183105,-0.122070,-0.061035,21.26,0
546640317,21915.489909,1777900747.084597,-1126,-1699,265,-3,-1,0,-0.549805,-0.829590,0.129395,-0.183105,-0.061035,0.000000,21.21,0
546641329,21915.489921,1777900747.085609,-1127,-1699,264,-3,-1,1,-0.550293,-0.829590,0.128906,-0.183105,-0.061035,0.061035,21.18,0
546642341,21915.489927,1777900747.086621,-1127,-1701,267,-3,-2,1,-0.550293,-0.830566,0.130371,-0.183105,-0.122070,0.061035,21.39,1
546643354,21915.489935,1777900747.087634,-1128,-1703,268,-2,-1,0,-0.550781,-0.831543,0.130859,-0.122070,-0.061035,0.000000,21.32,0
546644365,21915.489942,1777900747.088645,-1125,-1701,267,-3,-1,0,-0.549316,-0.830566,0.130371,-0.183105,-0.061035,0.000000,21.39,0
546645377,21915.497947,1777900747.089679,-1121,-1699,267,-3,-2,0,-0.547363,-0.829590,0.130371,-0.183105,-0.122070,0.000000,21.42,0
546646391,21915.497963,1777900747.090693,-1118,-1698,269,-2,-2,-1,-0.545898,-0.829102,0.131348,-0.122070,-0.122070,-0.061035,21.33,0
546647402,21915.497970,1777900747.091703,-1120,-1699,266,-2,-2,-1,-0.546875,-0.829590,0.129883,-0.122070,-0.122070,-0.061035,21.26,0
546648415,21915.497977,1777900747.092716,-1121,-1697,261,-3,-2,-1,-0.547363,-0.828613,0.127441,-0.183105,-0.122070,-0.061035,21.20,0
546649426,21915.497984,1777900747.093727,-1119,-1698,262,-4,-1,-2,-0.546387,-0.829102,0.127930,-0.244141,-0.061035,-0.122070,21.32,0
546650438,21915.497990,1777900747.094739,-1122,-1700,261,-3,0,-1,-0.547852,-0.830078,0.127441,-0.183105,0.000000,-0.061035,21.35,0
546651452,21915.497997,1777900747.095753,-1126,-1699,264,-2,-1,0,-0.549805,-0.829590,0.128906,-0.122070,-0.061035,0.000000,21.41,0
546652464,21915.498007,1777900747.096765,-1126,-1699,267,-2,-2,0,-0.549805,-0.829590,0.130371,-0.122070,-0.122070,0.000000,21.32,0
546653477,21915.506053,1777900747.097787,-1126,-1700,265,-2,-2,-1,-0.549805,-0.830078,0.129395,-0.122070,-0.122070,-0.061035,21.35,1
546654489,21915.506070,1777900747.098799,-1128,-1700,265,-2,-2,0,-0.550781,-0.830078,0.129395,-0.122070,-0.122070,0.000000,21.29,0
546655501,21915.506077,1777900747.099811,-1125,-1700,266,-2,-1,1,-0.549316,-0.830078,0.129883,-0.122070,-0.061035,0.061035,21.23,0
546656513,21915.506084,1777900747.100823,-1124,-1700,267,-3,0,0,-0.548828,-0.830078,0.130371,-0.183105,0.000000,0.000000,21.24,0
546657526,21915.506091,1777900747.101836,-1124,-1699,266,-3,-1,0,-0.548828,-0.829590,0.129883,-0.183105,-0.061035,0.000000,21.20,0
546658538,21915.506098,1777900747.102848,-1121,-1698,264,-3,-1,0,-0.547363,-0.829102,0.128906,-0.183105,-0.061035,0.000000,21.27,0
546659549,21915.506104,1777900747.103859,-1120,-1700,264,-2,-1,0,-0.546875,-0.830078,0.128906,-0.122070,-0.061035,0.000000,21.23,0
546660561,21915.506111,1777900747.104871,-1123,-1700,264,-2,0,1,-0.548340,-0.830078,0.128906,-0.122070,0.000000,0.061035,21.26,0
546661575,21915.514159,1777900747.105885,-1125,-1699,264,-3,0,0,-0.549316,-0.829590,0.128906,-0.183105,0.000000,0.000000,21.23,0
546662587,21915.514175,1777900747.106897,-1123,-1699,266,-3,-2,-1,-0.548340,-0.829590,0.129883,-0.183105,-0.122070,-0.061035,21.20,0
546663600,21915.514183,1777900747.107910,-1121,-1698,264,-3,-3,-1,-0.547363,-0.829102,0.128906,-0.183105,-0.183105,-0.061035,21.30,0
546664609,21915.514189,1777900747.108923,-1123,-1697,262,-3,-2,0,-0.548340,-0.828613,0.127930,-0.183105,-0.122070,0.000000,21.20,1
546665624,21915.514197,1777900747.109938,-1125,-1697,266,-3,-1,-1,-0.549316,-0.828613,0.129883,-0.183105,-0.061035,-0.061035,21.36,0
546666636,21915.514204,1777900747.110950,-1125,-1697,264,-3,-1,-1,-0.549316,-0.828613,0.128906,-0.183105,-0.061035,-0.061035,21.18,0
546667648,21915.514210,1777900747.111962,-1122,-1697,261,-4,-1,-1,-0.547852,-0.828613,0.127441,-0.244141,-0.061035,-0.061035,21.17,0
546668661,21915.514217,1777900747.112975,-1122,-1697,266,-3,-1,0,-0.547852,-0.828613,0.129883,-0.183105,-0.061035,0.000000,21.32,0
546669672,21915.522295,1777900747.113986,-1125,-1697,266,-3,-1,-1,-0.549316,-0.828613,0.129883,-0.183105,-0.061035,-0.061035,21.11,0
546670683,21915.522312,1777900747.114997,-1123,-1697,261,-3,-2,-1,-0.548340,-0.828613,0.127441,-0.183105,-0.122070,-0.061035,21.23,0
546671696,21915.522319,1777900747.116010,-1120,-1697,262,-2,-2,-1,-0.546875,-0.828613,0.127930,-0.122070,-0.122070,-0.061035,21.35,0
546672708,21915.522327,1777900747.117022,-1121,-1696,264,-2,-1,-1,-0.547363,-0.828125,0.128906,-0.122070,-0.061035,-0.061035,21.29,0
546673721,21915.522333,1777900747.118035,-1124,-1697,264,-3,-1,-1,-0.548828,-0.828613,0.128906,-0.183105,-0.061035,-0.061035,21.41,0
546674732,21915.522368,1777900747.119046,-1122,-1698,265,-4,-2,-1,-0.547852,-0.829102,0.129395,-0.244141,-0.122070,-0.061035,21.38,0
546675746,21915.522375,1777900747.120060,-1122,-1695,266,-4,-2,0,-0.547852,-0.827637,0.129883,-0.244141,-0.122070,0.000000,21.26,1
546676757,21915.522383,1777900747.121071,-1125,-1696,266,-3,-1,0,-0.549316,-0.828125,0.129883,-0.183105,-0.061035,0.000000,21.26,0
546677769,21915.530455,1777900747.122084,-1124,-1700,263,-3,-1,-1,-0.548828,-0.830078,0.128418,-0.183105,-0.061035,-0.061035,21.14,0
546678783,21915.530470,1777900747.123098,-1121,-1698,260,-3,-1,0,-0.547363,-0.829102,0.126953,-0.183105,-0.061035,0.000000,21.21,0
546679795,21915.530478,1777900747.124110,-1125,-1697,261,-3,-1,0,-0.549316,-0.828613,0.127441,-0.183105,-0.061035,0.000000,21.36,0
546680808,21915.530485,1777900747.125123,-1125,-1700,264,-2,-1,-1,-0.549316,-0.830078,0.128906,-0.122070,-0.061035,-0.061035,21.26,0
546681818,21915.530492,1777900747.126133,-1124,-1699,265,-2,-2,0,-0.548828,-0.829590,0.129395,-0.122070,-0.122070,0.000000,21.38,0
546682832,21915.530499,1777900747.127147,-1127,-1697,261,-2,-2,1,-0.550293,-0.828613,0.127441,-0.122070,-0.122070,0.061035,21.32,0
546683845,21915.530505,1777900747.128160,-1126,-1701,262,-2,-2,0,-0.549805,-0.830566,0.127930,-0.122070,-0.122070,0.000000,21.27,0
546684855,21915.530512,1777900747.129170,-1120,-1700,266,-3,-2,-1,-0.546875,-0.830078,0.129883,-0.183105,-0.122070,-0.061035,21.12,0
546685869,21915.538457,1777900747.130184,-1120,-1697,266,-3,-1,0,-0.546875,-0.828613,0.129883,-0.183105,-0.061035,0.000000,21.26,0
546686881,21915.538475,1777900747.131196,-1122,-1697,264,-4,-1,0,-0.547852,-0.828613,0.128906,-0.244141,-0.061035,0.000000,21.23,1
546687893,21915.538484,1777900747.132208,-1123,-1700,263,-4,-2,-1,-0.548340,-0.830078,0.128418,-0.244141,-0.122070,-0.061035,21.01,0
546688905,21915.538491,1777900747.133220,-1124,-1702,264,-3,-2,0,-0.548828,-0.831055,0.128906,-0.183105,-0.122070,0.000000,21.20,0
546689916,21915.538498,1777900747.134231,-1124,-1700,265,-3,0,2,-0.548828,-0.830078,0.129395,-0.183105,0.000000,0.122070,21.23,0
546690930,21915.538505,1777900747.135245,-1125,-1700,268,-4,-1,1,-0.549316,-0.830078,0.130859,-0.244141,-0.061035,0.061035,21.29,0
546691942,21915.538511,1777900747.136257,-1125,-1702,268,-4,-2,-1,-0.549316,-0.831055,0.130859,-0.244141,-0.122070,-0.061035,21.29,0
546692953,21915.538518,1777900747.137268,-1122,-1700,266,-3,-1,-1,-0.547852,-0.830078,0.129883,-0.183105,-0.061035,-0.061035,21.36,0
546693966,21915.546555,1777900747.138281,-1122,-1701,264,-3,0,-1,-0.547852,-0.830566,0.128906,-0.183105,0.000000,-0.061035,21.30,0
546694978,21915.546578,1777900747.139293,-1123,-1701,266,-3,-1,0,-0.548340,-0.830566,0.129883,-0.183105,-0.061035,0.000000,21.20,0
546695989,21915.546588,1777900747.140304,-1122,-1698,267,-2,-2,-1,-0.547852,-0.829102,0.130371,-0.122070,-0.122070,-0.061035,21.26,0
546697004,21915.546598,1777900747.141319,-1119,-1699,265,-2,-1,-1,-0.546387,-0.829590,0.129395,-0.122070,-0.061035,-0.061035,21.14,0
546698016,21915.546609,1777900747.142330,-1122,-1700,262,-2,-1,0,-0.547852,-0.830078,0.127930,-0.122070,-0.061035,0.000000,21.29,1
546699026,21915.546621,1777900747.143340,-1125,-1699,261,-3,-2,0,-0.549316,-0.829590,0.127441,-0.183105,-0.122070,0.000000,21.32,0
546700039,21915.546631,1777900747.144353,-1125,-1698,262,-2,-2,0,-0.549316,-0.829102,0.127930,-0.122070,-0.122070,0.000000,21.38,0
546701052,21915.546641,1777900747.145366,-1124,-1697,266,-2,-1,0,-0.548828,-0.828613,0.129883,-0.122070,-0.061035,0.000000,21.21,0
546702064,21915.555689,1777900747.146378,-1123,-1697,268,-3,-1,0,-0.548340,-0.828613,0.130859,-0.183105,-0.061035,0.000000,21.17,0
546703075,21915.555702,1777900747.147388,-1120,-1696,266,-3,-1,0,-0.546875,-0.828125,0.129883,-0.183105,-0.061035,0.000000,21.29,0
546704101,21915.555709,1777900747.148415,-1120,-1697,265,-3,0,0,-0.546875,-0.828613,0.129395,-0.183105,0.000000,0.000000,21.12,0
546705101,21915.555716,1777900747.149415,-1125,-1700,266,-2,0,-1,-0.549316,-0.830078,0.129883,-0.122070,0.000000,-0.061035,21.15,0
546706115,21915.555722,1777900747.150429,-1127,-1701,266,-3,0,-2,-0.550293,-0.830566,0.129883,-0.183105,0.000000,-0.122070,21.26,0
546707127,21915.555729,1777900747.151440,-1125,-1700,266,-4,0,-1,-0.549316,-0.830078,0.129883,-0.244141,0.000000,-0.061035,21.29,0
546708143,21915.555736,1777900747.152457,-1124,-1698,266,-4,0,-1,-0.548828,-0.829102,0.129883,-0.244141,0.000000,-0.061035,21.26,0
546709150,21915.555743,1777900747.153463,-1123,-1697,266,-3,-1,0,-0.548340,-0.828613,0.129883,-0.183105,-0.061035,0.000000,21.27,1
546710163,21915.562736,1777900747.154475,-1124,-1698,266,-3,-1,0,-0.548828,-0.829102,0.129883,-0.183105,-0.061035,0.000000,21.17,0
546711175,21915.562749,1777900747.155487,-1125,-1700,265,-3,-2,0,-0.549316,-0.830078,0.129395,-0.183105,-0.122070,0.000000,21.32,0
546712186,21915.562756,1777900747.156498,-1124,-1700,266,-2,-1,-1,-0.548828,-0.830078,0.129883,-0.122070,-0.061035,-0.061035,21.35,0
546713199,21915.562763,1777900747.157511,-1124,-1698,266,-2,0,-1,-0.548828,-0.829102,0.129883,-0.122070,0.000000,-0.061035,21.30,0
546714213,21915.562770,1777900747.158525,-1125,-1699,265,-4,-2,-1,-0.549316,-0.829590,0.129395,-0.244141,-0.122070,-0.061035,21.38,0
546715223,21915.562776,1777900747.159535,-1125,-1698,263,-4,-2,0,-0.549316,-0.829102,0.128418,-0.244141,-0.122070,0.000000,21.04,0
546716237,21915.562783,1777900747.160549,-1123,-1697,264,-3,-1,0,-0.548340,-0.828613,0.128906,-0.183105,-0.061035,0.000000,21.17,0
546717249,21915.562790,1777900747.161561,-1123,-1700,265,-3,-1,1,-0.548340,-0.830078,0.129395,-0.183105,-0.061035,0.061035,21.12,0
546718261,21915.570828,1777900747.162573,-1124,-1704,265,-4,-1,0,-0.548828,-0.832031,0.129395,-0.244141,-0.061035,0.000000,21.17,0
546719273,21915.570843,1777900747.163585,-1124,-1701,264,-3,0,-1,-0.548828,-0.830566,0.128906,-0.183105,0.000000,-0.061035,21.11,0
546720284,21915.570853,1777900747.164594,-1124,-1698,264,-2,0,-1,-0.548828,-0.829102,0.128906,-0.122070,0.000000,-0.061035,21.41,1
546721297,21915.570867,1777900747.165607,-1121,-1697,263,-3,-1,-1,-0.547363,-0.828613,0.128418,-0.183105,-0.061035,-0.061035,21.14,0
546722310,21915.570877,1777900747.166620,-1121,-1698,261,-4,-2,-1,-0.547363,-0.829102,0.127441,-0.244141,-0.122070,-0.061035,21.18,0
546723321,21915.570886,1777900747.167631,-1121,-1699,263,-4,-1,-1,-0.547363,-0.829590,0.128418,-0.244141,-0.061035,-0.061035,21.17,0
546724333,21915.570895,1777900747.168643,-1123,-1699,261,-3,-1,-1,-0.548340,-0.829590,0.127441,-0.183105,-0.061035,-0.061035,21.20,0
546725347,21915.570904,1777900747.169657,-1123,-1699,264,-2,-1,-1,-0.548340,-0.829590,0.128906,-0.122070,-0.061035,-0.061035,21.20,0
546726357,21915.578922,1777900747.170667,-1122,-1699,268,-2,-1,0,-0.547852,-0.829590,0.130859,-0.122070,-0.061035,0.000000,21.35,0
546727370,21915.578937,1777900747.171680,-1124,-1700,266,-3,-1,1,-0.548828,-0.830078,0.129883,-0.183105,-0.061035,0.061035,21.18,0
546728383,21915.578944,1777900747.172693,-1124,-1702,262,-2,-1,0,-0.548828,-0.831055,0.127930,-0.122070,-0.061035,0.000000,21.15,0
546729396,21915.578951,1777900747.173706,-1122,-1702,266,-3,-1,-1,-0.547852,-0.831055,0.129883,-0.183105,-0.061035,-0.061035,21.35,0
546730409,21915.578958,1777900747.174719,-1122,-1701,270,-3,-1,-1,-0.547852,-0.830566,0.131836,-0.183105,-0.061035,-0.061035,21.41,1
546731420,21915.578966,1777900747.175730,-1123,-1700,266,-3,-3,-1,-0.548340,-0.830078,0.129883,-0.183105,-0.183105,-0.061035,21.33,0
546732433,21915.578973,1777900747.176743,-1119,-1699,263,-3,-3,0,-0.546387,-0.829590,0.128418,-0.183105,-0.183105,0.000000,21.24,0
546733444,21915.578979,1777900747.177753,-1120,-1699,262,-2,-2,-1,-0.546875,-0.829590,0.127930,-0.122070,-0.122070,-0.061035,21.41,0
546734455,21915.587041,1777900747.178854,-1125,-1698,262,-2,-2,0,-0.549316,-0.829102,0.127930,-0.122070,-0.122070,0.000000,21.23,0
546735469,21915.587060,1777900747.179868,-1125,-1699,264,-3,-2,0,-0.549316,-0.829590,0.128906,-0.183105,-0.122070,0.000000,21.32,0
546736482,21915.587070,1777900747.180881,-1122,-1701,264,-4,0,0,-0.547852,-0.830566,0.128906,-0.244141,0.000000,0.000000,21.26,0
546737492,21915.587114,1777900747.181891,-1126,-1700,261,-3,0,-1,-0.549805,-0.830078,0.127441,-0.183105,0.000000,-0.061035,21.20,0
546738506,21915.587123,1777900747.182905,-1128,-1698,262,-3,-1,-1,-0.550781,-0.829102,0.127930,-0.183105,-0.061035,-0.061035,21.30,0
546739518,21915.587131,1777900747.183917,-1125,-1696,266,-3,-2,0,-0.549316,-0.828125,0.129883,-0.183105,-0.122070,0.000000,21.35,0
546740530,21915.587140,1777900747.184929,-1126,-1699,268,-3,-2,1,-0.549805,-0.829590,0.130859,-0.183105,-0.122070,0.061035,21.33,0
546741542,21915.587148,1777900747.185941,-1128,-1704,268,-4,-2,-1,-0.550781,-0.832031,0.130859,-0.244141,-0.122070,-0.061035,21.07,1
546742555,21915.595123,1777900747.187028,-1127,-1701,264,-4,-2,-1,-0.550293,-0.830566,0.128906,-0.244141,-0.122070,-0.061035,21.38,0
546743568,21915.595141,1777900747.188041,-1124,-1698,260,-3,-1,-1,-0.548828,-0.829102,0.126953,-0.183105,-0.061035,-0.061035,21.35,0
546744580,21915.595148,1777900747.189053,-1124,-1697,261,-3,-1,0,-0.548828,-0.828613,0.127441,-0.183105,-0.061035,0.000000,21.20,0
546745590,21915.595155,1777900747.190063,-1126,-1697,264,-3,-1,1,-0.549805,-0.828613,0.128906,-0.183105,-0.061035,0.061035,21.20,0
546746604,21915.595162,1777900747.191077,-1123,-1697,267,-3,0,2,-0.548340,-0.828613,0.130371,-0.183105,0.000000,0.122070,21.17,0
546747615,21915.595169,1777900747.192088,-1121,-1699,266,-3,-1,0,-0.547363,-0.829590,0.129883,-0.183105,-0.061035,0.000000,21.20,0
546748630,21915.595175,1777900747.193103,-1125,-1700,261,-2,-1,-1,-0.549316,-0.830078,0.127441,-0.122070,-0.061035,-0.061035,21.17,0
546749642,21915.595182,1777900747.194115,-1126,-1700,263,-2,-1,-1,-0.549805,-0.830078,0.128418,-0.122070,-0.061035,-0.061035,21.20,0
546750653,21915.603307,1777900747.195126,-1125,-1701,267,-2,-1,-1,-0.549316,-0.830566,0.130371,-0.122070,-0.061035,-0.061035,21.35,0
546751664,21915.603324,1777900747.196137,-1126,-1700,268,-3,-2,-1,-0.549805,-0.830078,0.130859,-0.183105,-0.122070,-0.061035,21.26,0
546752677,21915.603335,1777900747.197212,-1125,-1698,266,-3,-1,0,-0.549316,-0.829102,0.129883,-0.183105,-0.061035,0.000000,21.07,1
546753690,21915.603348,1777900747.198225,-1124,-1699,263,-3,-1,0,-0.548828,-0.829590,0.128418,-0.183105,-0.061035,0.000000,21.09,0
546754702,21915.603359,1777900747.199237,-1123,-1701,261,-3,-1,-1,-0.548340,-0.830566,0.127441,-0.183105,-0.061035,-0.061035,21.29,0
546755713,21915.603370,1777900747.200248,-1123,-1702,260,-3,-2,-2,-0.548340,-0.831055,0.126953,-0.183105,-0.122070,-0.122070,21.24,0
546756725,21915.603381,1777900747.201260,-1125,-1699,264,-2,-1,-1,-0.549316,-0.829590,0.128906,-0.122070,-0.061035,-0.061035,21.32,0
546757737,21915.603392,1777900747.202272,-1125,-1698,267,-2,-1,-1,-0.549316,-0.829102,0.130371,-0.122070,-0.061035,-0.061035,21.36,0
546758752,21915.611335,1777900747.203287,-1121,-1700,264,-2,0,0,-0.547363,-0.830078,0.128906,-0.122070,0.000000,0.000000,21.38,0
546759763,21915.611350,1777900747.204298,-1121,-1702,263,-2,0,0,-0.547363,-0.831055,0.128418,-0.122070,0.000000,0.000000,21.24,0
546760776,21915.611357,1777900747.205311,-1124,-1700,263,-2,-1,0,-0.548828,-0.830078,0.128418,-0.122070,-0.061035,0.000000,21.27,0
546761789,21915.611364,1777900747.206324,-1125,-1700,262,-2,-1,0,-0.549316,-0.830078,0.127930,-0.122070,-0.061035,0.000000,21.27,0
546762801,21915.611371,1777900747.207336,-1125,-1700,264,-3,-1,0,-0.549316,-0.830078,0.128906,-0.183105,-0.061035,0.000000,21.35,0
546763811,21915.611378,1777900747.208346,-1125,-1701,265,-3,-2,0,-0.549316,-0.830566,0.129395,-0.183105,-0.122070,0.000000,21.29,1
546764825,21915.611386,1777900747.209360,-1126,-1700,265,-2,-2,0,-0.549805,-0.830078,0.129395,-0.122070,-0.122070,0.000000,21.20,0
546765836,21915.611393,1777900747.210371,-1124,-1700,267,-3,-1,0,-0.548828,-0.830078,0.130371,-0.183105,-0.061035,0.000000,21.18,0
546766850,21915.619418,1777900747.211438,-1123,-1700,265,-3,-1,-1,-0.548340,-0.830078,0.129395,-0.183105,-0.061035,-0.061035,21.14,0
546767862,21915.619431,1777900747.212450,-1124,-1698,262,-3,-1,0,-0.548828,-0.829102,0.127930,-0.183105,-0.061035,0.000000,21.17,0
546768872,21915.619438,1777900747.213460,-1123,-1699,263,-2,-2,-1,-0.548340,-0.829590,0.128418,-0.122070,-0.122070,-0.061035,21.26,0
546769887,21915.619445,1777900747.214475,-1123,-1700,266,-2,-1,-2,-0.548340,-0.830078,0.129883,-0.122070,-0.061035,-0.122070,21.21,0
546770899,21915.619452,1777900747.215487,-1125,-1698,267,-3,-1,-1,-0.549316,-0.829102,0.130371,-0.183105,-0.061035,-0.061035,21.38,0
546771911,21915.619459,1777900747.216499,-1124,-1699,262,-3,-2,0,-0.548828,-0.829590,0.127930,-0.183105,-0.122070,0.000000,21.29,0
546772924,21915.619465,1777900747.217512,-1122,-1701,261,-2,-1,0,-0.547852,-0.830566,0.127441,-0.122070,-0.061035,0.000000,21.27,0
546773936,21915.619472,1777900747.218524,-1122,-1701,266,-2,-1,0,-0.547852,-0.830566,0.129883,-0.122070,-0.061035,0.000000,21.18,0
546774946,21915.627525,1777900747.219579,-1123,-1702,266,-2,-1,0,-0.548340,-0.831055,0.129883,-0.122070,-0.061035,0.000000,21.26,1
546775959,21915.627542,1777900747.220592,-1124,-1700,261,-4,-1,0,-0.548828,-0.830078,0.127441,-0.244141,-0.061035,0.000000,21.44,0
546776973,21915.627553,1777900747.221606,-1123,-1696,258,-4,-1,-1,-0.548340,-0.828125,0.125977,-0.244141,-0.061035,-0.061035,21.24,0
546777982,21915.627563,1777900747.222615,-1124,-1698,263,-3,-1,-1,-0.548828,-0.829102,0.128418,-0.183105,-0.061035,-0.061035,21.27,0
546778996,21915.627573,1777900747.223629,-1126,-1702,265,-2,-2,-1,-0.549805,-0.831055,0.129395,-0.122070,-0.122070,-0.061035,21.32,0
546780007,21915.627584,1777900747.224640,-1125,-1704,263,-3,-1,-1,-0.549316,-0.832031,0.128418,-0.183105,-0.061035,-0.061035,21.36,0
546781019,21915.627594,1777900747.225652,-1122,-1701,265,-4,-1,-1,-0.547852,-0.830566,0.129395,-0.244141,-0.061035,-0.061035,21.26,0
546782032,21915.627604,1777900747.226665,-1121,-1699,266,-4,-1,-1,-0.547363,-0.829590,0.129883,-0.244141,-0.061035,-0.061035,21.35,0
546783044,21915.635623,1777900747.227677,-1122,-1697,264,-4,-1,0,-0.547852,-0.828613,0.128906,-0.244141,-0.061035,0.000000,21.38,0
546784058,21915.635654,1777900747.228691,-1125,-1699,264,-4,-1,1,-0.549316,-0.829590,0.128906,-0.244141,-0.061035,0.061035,21.33,0
546785071,21915.635664,1777900747.229704,-1124,-1700,265,-4,-1,0,-0.548828,-0.830078,0.129395,-0.244141,-0.061035,0.000000,21.29,0
546786094,21915.635674,1777900747.230765,-1121,-1697,266,-3,-1,0,-0.547363,-0.828613,0.129883,-0.183105,-0.061035,0.000000,21.15,1
546787098,21915.635685,1777900747.231769,-1122,-1697,264,-2,-1,0,-0.547852,-0.828613,0.128906,-0.122070,-0.061035,0.000000,21.12,0
546788106,21915.635695,1777900747.232777,-1124,-1699,265,-3,-1,0,-0.548828,-0.829590,0.129395,-0.183105,-0.061035,0.000000,21.23,0
546789119,21915.635705,1777900747.233790,-1125,-1699,268,-3,-1,0,-0.549316,-0.829590,0.130859,-0.183105,-0.061035,0.000000,21.14,0
546790129,21915.635715,1777900747.234800,-1124,-1698,267,-2,0,0,-0.548828,-0.829102,0.130371,-0.122070,0.000000,0.000000,21.24,0
546791142,21915.643723,1777900747.235813,-1125,-1701,267,-2,-1,-1,-0.549316,-0.830566,0.130371,-0.122070,-0.061035,-0.061035,21.14,0
546792155,21915.643736,1777900747.236826,-1125,-1702,265,-2,-2,-1,-0.549316,-0.831055,0.129395,-0.122070,-0.122070,-0.061035,21.23,0
546793166,21915.643743,1777900747.237837,-1121,-1699,267,-3,-2,-1,-0.547363,-0.829590,0.130371,-0.183105,-0.122070,-0.061035,21.14,0
546794181,21915.643750,1777900747.238852,-1120,-1697,271,-3,-2,-1,-0.546875,-0.828613,0.132324,-0.183105,-0.122070,-0.061035,21.15,0
546795193,21915.643757,1777900747.239864,-1121,-1698,268,-3,-2,-1,-0.547363,-0.829102,0.130859,-0.183105,-0.122070,-0.061035,21.20,0
546796204,21915.643763,1777900747.240875,-1124,-1698,264,-3,-1,-1,-0.548828,-0.829102,0.128906,-0.183105,-0.061035,-0.061035,21.23,0
546797216,21915.643770,1777900747.241887,-1124,-1697,264,-3,-1,0,-0.548828,-0.828613,0.128906,-0.183105,-0.061035,0.000000,21.39,1
546798229,21915.643778,1777900747.242900,-1124,-1699,266,-3,-1,0,-0.548828,-0.829590,0.129883,-0.183105,-0.061035,0.000000,21.17,0
546799241,21915.651809,1777900747.243946,-1125,-1700,266,-3,-2,0,-0.549316,-0.830078,0.129883,-0.183105,-0.122070,0.000000,21.35,0
546800254,21915.651824,1777900747.244959,-1124,-1702,263,-2,-2,0,-0.548828,-0.831055,0.128418,-0.122070,-0.122070,0.000000,21.23,0
546801266,21915.651863,1777900747.245971,-1123,-1702,262,-3,-1,0,-0.548340,-0.831055,0.127930,-0.183105,-0.061035,0.000000,21.24,0
546802277,21915.651870,1777900747.246982,-1122,-1699,266,-3,0,0,-0.547852,-0.829590,0.129883,-0.183105,0.000000,0.000000,21.32,0
546803290,21915.651877,1777900747.247995,-1120,-1698,270,-3,0,0,-0.546875,-0.829102,0.131836,-0.183105,0.000000,0.000000,21.32,0
546804302,21915.651884,1777900747.249007,-1121,-1698,266,-2,-1,0,-0.547363,-0.829102,0.129883,-0.122070,-0.061035,0.000000,21.29,0
546805313,21915.651891,1777900747.250018,-1122,-1700,261,-1,-1,-1,-0.547852,-0.830078,0.127441,-0.061035,-0.061035,-0.061035,21.23,0
546806327,21915.651898,1777900747.251032,-1122,-1698,263,-2,-1,-2,-0.547852,-0.829102,0.128418,-0.122070,-0.061035,-0.122070,21.26,0
546807340,21915.659933,1777900747.252045,-1122,-1698,263,-3,-1,-2,-0.547852,-0.829102,0.128418,-0.183105,-0.061035,-0.122070,21.32,0
546808352,21915.659952,1777900747.253087,-1121,-1700,261,-3,-1,-1,-0.547363,-0.830078,0.127441,-0.183105,-0.061035,-0.061035,21.27,1
546809363,21915.659964,1777900747.254098,-1122,-1701,265,-3,-1,-1,-0.547852,-0.830566,0.129395,-0.183105,-0.061035,-0.061035,21.33,0
546810375,21915.659975,1777900747.255110,-1123,-1701,265,-4,-2,-1,-0.548340,-0.830566,0.129395,-0.244141,-0.122070,-0.061035,21.23,0
546811389,21915.659986,1777900747.256124,-1123,-1700,263,-4,-2,-1,-0.548340,-0.830078,0.128418,-0.244141,-0.122070,-0.061035,21.35,0
546812402,21915.659996,1777900747.257137,-1123,-1698,262,-3,-3,-1,-0.548340,-0.829102,0.127930,-0.183105,-0.183105,-0.061035,21.20,0
546813413,21915.660011,1777900747.258148,-1125,-1695,259,-3,-2,0,-0.549316,-0.827637,0.126465,-0.183105,-0.122070,0.000000,21.27,0
546814425,21915.660022,1777900747.259160,-1126,-1695,258,-3,0,1,-0.549805,-0.827637,0.125977,-0.183105,0.000000,0.061035,21.35,0
546815439,21915.668011,1777900747.260174,-1122,-1699,262,-3,-1,0,-0.547852,-0.829590,0.127930,-0.183105,-0.061035,0.000000,21.38,0
546816451,21915.668032,1777900747.261186,-1119,-1698,265,-3,-2,-1,-0.546387,-0.829102,0.129395,-0.183105,-0.122070,-0.061035,21.35,0
546817461,21915.668039,1777900747.262196,-1123,-1697,267,-3,-2,0,-0.548340,-0.828613,0.130371,-0.183105,-0.122070,0.000000,21.32,0
546818473,21915.668046,1777900747.263208,-1124,-1699,266,-2,-2,1,-0.548828,-0.829590,0.129883,-0.122070,-0.122070,0.061035,21.26,0
546819485,21915.668053,1777900747.264220,-1121,-1700,263,-2,-1,0,-0.547363,-0.830078,0.128418,-0.122070,-0.061035,0.000000,21.26,1
546820497,21915.668063,1777900747.265232,-1124,-1701,264,-2,-1,-1,-0.548828,-0.830566,0.128906,-0.122070,-0.061035,-0.061035,21.18,0
546821509,21915.668071,1777900747.266244,-1125,-1701,267,-3,-1,0,-0.549316,-0.830566,0.130371,-0.183105,-0.061035,0.000000,21.30,0
546822524,21915.668078,1777900747.267259,-1124,-1700,267,-3,-2,1,-0.548828,-0.830078,0.130371,-0.183105,-0.122070,0.061035,21.32,0
546823537,21915.676116,1777900747.268298,-1125,-1698,263,-3,-1,-1,-0.549316,-0.829102,0.128418,-0.183105,-0.061035,-0.061035,21.41,0
546824547,21915.676138,1777900747.269308,-1126,-1697,263,-3,-1,-1,-0.549805,-0.828613,0.128418,-0.183105,-0.061035,-0.061035,21.30,0
546825560,21915.676147,1777900747.270321,-1125,-1699,268,-3,-2,1,-0.549316,-0.829590,0.130859,-0.183105,-0.122070,0.061035,21.17,0
546826571,21915.676156,1777900747.271332,-1126,-1702,267,-3,-1,1,-0.549805,-0.831055,0.130371,-0.183105,-0.061035,0.061035,21.29,0
546827585,21915.676165,1777900747.272346,-1125,-1700,265,-4,-1,0,-0.549316,-0.830078,0.129395,-0.244141,-0.061035,0.000000,21.35,0
546828596,21915.676174,1777900747.273357,-1122,-1700,267,-3,-2,0,-0.547852,-0.830078,0.130371,-0.183105,-0.122070,0.000000,21.17,0
546829610,21915.676183,1777900747.274371,-1122,-1700,264,-3,-2,0,-0.547852,-0.830078,0.128906,-0.183105,-0.122070,0.000000,21.23,0
546830622,21915.676192,1777900747.275383,-1123,-1699,264,-3,-2,1,-0.548340,-0.829590,0.128906,-0.183105,-0.122070,0.061035,21.33,1
546831634,21915.684220,1777900747.276418,-1124,-1700,270,-2,-2,0,-0.548828,-0.830078,0.131836,-0.122070,-0.122070,0.000000,21.26,0
546832644,21915.684234,1777900747.277428,-1124,-1700,269,-2,-2,-1,-0.548828,-0.830078,0.131348,-0.122070,-0.122070,-0.061035,21.32,0
546833657,21915.684241,1777900747.278441,-1125,-1700,266,-3,-1,-1,-0.549316,-0.830078,0.129883,-0.183105,-0.061035,-0.061035,21.26,0
546834671,21915.684248,1777900747.279455,-1124,-1703,268,-4,0,-1,-0.548828,-0.831543,0.130859,-0.244141,0.000000,-0.061035,21.33,0
546835683,21915.684255,1777900747.280467,-1120,-1703,267,-3,0,-1,-0.546875,-0.831543,0.130371,-0.183105,0.000000,-0.061035,21.24,0
546836694,21915.684263,1777900747.281478,-1122,-1700,263,-2,-1,0,-0.547852,-0.830078,0.128418,-0.122070,-0.061035,0.000000,21.32,0
546837706,21915.684270,1777900747.282490,-1127,-1699,264,-2,-2,0,-0.550293,-0.829590,0.128906,-0.122070,-0.122070,0.000000,21.30,0
546838719,21915.684278,1777900747.283503,-1123,-1700,266,-2,-1,0,-0.548340,-0.830078,0.129883,-0.122070,-0.061035,0.000000,21.20,0
546839730,21915.692308,1777900747.284514,-1119,-1702,265,-2,-1,0,-0.546387,-0.831055,0.129395,-0.122070,-0.061035,0.000000,21.14,0
546840743,21915.692332,1777900747.285527,-1123,-1701,265,-1,-1,0,-0.548340,-0.830566,0.129395,-0.061035,-0.061035,0.000000,21.23,0
546841755,21915.692340,1777900747.286560,-1129,-1698,264,-2,-1,0,-0.551270,-0.829102,0.128906,-0.122070,-0.061035,0.000000,21.29,1
546842767,21915.692353,1777900747.287572,-1128,-1700,262,-3,-1,0,-0.550781,-0.830078,0.127930,-0.183105,-0.061035,0.000000,21.18,0
546843782,21915.692363,1777900747.288587,-1123,-1701,261,-2,-1,0,-0.548340,-0.830566,0.127441,-0.122070,-0.061035,0.000000,21.18,0
546844794,21915.692373,1777900747.289599,-1122,-1698,259,-2,-1,0,-0.547852,-0.829102,0.126465,-0.122070,-0.061035,0.000000,21.23,0
546845805,21915.692381,1777900747.290610,-1123,-1698,265,-2,-2,0,-0.548340,-0.829102,0.129395,-0.122070,-0.122070,0.000000,21.27,0
546846817,21915.692391,1777900747.291622,-1123,-1698,269,-3,-2,0,-0.548340,-0.829102,0.131348,-0.183105,-0.122070,0.000000,21.36,0
546847830,21915.700399,1777900747.292635,-1123,-1699,265,-3,-1,-1,-0.548340,-0.829590,0.129395,-0.183105,-0.061035,-0.061035,21.21,0
546848843,21915.700411,1777900747.293648,-1126,-1699,266,-3,-2,-1,-0.549805,-0.829590,0.129883,-0.183105,-0.122070,-0.061035,21.14,0
546849853,21915.700418,1777900747.294658,-1127,-1698,269,-2,-2,0,-0.550293,-0.829102,0.131348,-0.122070,-0.122070,0.000000,21.32,0
546850868,21915.700425,1777900747.295673,-1124,-1697,269,-3,-2,-1,-0.548828,-0.828613,0.131348,-0.183105,-0.122070,-0.061035,21.26,0
546851878,21915.700432,1777900747.296683,-1124,-1699,269,-4,-1,-2,-0.548828,-0.829590,0.131348,-0.244141,-0.061035,-0.122070,21.26,0
546852890,21915.700439,1777900747.297695,-1123,-1701,267,-3,-1,-1,-0.548340,-0.830566,0.130371,-0.183105,-0.061035,-0.061035,21.15,1
546853903,21915.700447,1777900747.298708,-1123,-1701,265,-2,-2,0,-0.548340,-0.830566,0.129395,-0.122070,-0.122070,0.000000,21.41,0
546854917,21915.700454,1777900747.299722,-1123,-1698,265,-2,-2,0,-0.548340,-0.829102,0.129395,-0.122070,-0.122070,0.000000,21.29,0
546855929,21915.708502,1777900747.300752,-1122,-1697,265,-3,-2,0,-0.547852,-0.828613,0.129395,-0.183105,-0.122070,0.000000,21.39,0
546856939,21915.708517,1777900747.301763,-1121,-1700,263,-4,-2,0,-0.547363,-0.830078,0.128418,-0.244141,-0.122070,0.000000,21.27,0
546857952,21915.708525,1777900747.302775,-1120,-1700,264,-5,-2,0,-0.546875,-0.830078,0.128906,-0.305176,-0.122070,0.000000,21.20,0
546858965,21915.708532,1777900747.303788,-1121,-1698,266,-4,-2,0,-0.547363,-0.829102,0.129883,-0.244141,-0.122070,0.000000,21.27,0
546859976,21915.708538,1777900747.304799,-1125,-1698,266,-3,-1,1,-0.549316,-0.829102,0.129883,-0.183105,-0.061035,0.061035,21.23,0
546860989,21915.708545,1777900747.305812,-1124,-1700,265,-2,-2,1,-0.548828,-0.830078,0.129395,-0.122070,-0.122070,0.061035,21.18,0
546862002,21915.708552,1777900747.306825,-1122,-1700,263,-2,-3,0,-0.547852,-0.830078,0.128418,-0.122070,-0.183105,0.000000,21.26,0
546863015,21915.708559,1777900747.307838,-1122,-1698,266,-2,-3,0,-0.547852,-0.829102,0.129883,-0.122070,-0.183105,0.000000,21.23,0
546864026,21915.716609,1777900747.308866,-1123,-1698,267,-2,-1,-1,-0.548340,-0.829102,0.130371,-0.122070,-0.061035,-0.061035,21.23,1
546865039,21915.716635,1777900747.309879,-1124,-1699,261,-3,0,0,-0.548828,-0.829590,0.127441,-0.183105,0.000000,0.000000,21.33,0
546866049,21915.716646,1777900747.310889,-1122,-1700,262,-3,-1,0,-0.547852,-0.830078,0.127930,-0.183105,-0.061035,0.000000,21.07,0
546867062,21915.716657,1777900747.311902,-1119,-1700,264,-3,-2,0,-0.546387,-0.830078,0.128906,-0.183105,-0.122070,0.000000,21.23,0
546868076,21915.716668,1777900747.312916,-1121,-1698,263,-3,-1,-1,-0.547363,-0.829102,0.128418,-0.183105,-0.061035,-0.061035,21.07,0
546869097,21915.716679,1777900747.313937,-1124,-1697,266,-3,0,-1,-0.548828,-0.828613,0.129883,-0.183105,0.000000,-0.061035,21.27,0
546870100,21915.716690,1777900747.314940,-1127,-1699,267,-2,-1,0,-0.550293,-0.829590,0.130371,-0.122070,-0.061035,0.000000,21.26,0
546871112,21915.716701,1777900747.315952,-1125,-1699,264,-2,-2,0,-0.549316,-0.829590,0.128906,-0.122070,-0.122070,0.000000,21.32,0
546872124,21915.724772,1777900747.316964,-1122,-1700,263,-2,-2,0,-0.547852,-0.830078,0.128418,-0.122070,-0.122070,0.000000,21.15,0
546873135,21915.724800,1777900747.317975,-1123,-1701,265,-2,-1,0,-0.548340,-0.830566,0.129395,-0.122070,-0.061035,0.000000,21.33,0
546874150,21915.724808,1777900747.318990,-1124,-1699,265,-3,0,0,-0.548828,-0.829590,0.129395,-0.183105,0.000000,0.000000,21.18,0
546875162,21915.724815,1777900747.320017,-1124,-1697,263,-4,0,0,-0.548828,-0.828613,0.128418,-0.244141,0.000000,0.000000,21.38,1
546876174,21915.724824,1777900747.321029,-1126,-1702,263,-3,-1,-1,-0.549805,-0.831055,0.128418,-0.183105,-0.061035,-0.061035,21.36,0
546877185,21915.724831,1777900747.322040,-1127,-1703,264,-2,-1,-1,-0.550293,-0.831543,0.128906,-0.122070,-0.061035,-0.061035,21.24,0
546878196,21915.724838,1777900747.323051,-1122,-1699,262,-2,-1,-1,-0.547852,-0.829590,0.127930,-0.122070,-0.061035,-0.061035,21.32,0
546879210,21915.724845,1777900747.324065,-1121,-1698,262,-2,-1,0,-0.547363,-0.829102,0.127930,-0.122070,-0.061035,0.000000,21.32,0
546880222,21915.732797,1777900747.325077,-1124,-1698,264,-3,-1,0,-0.548828,-0.829102,0.128906,-0.183105,-0.061035,0.000000,21.24,0
546881234,21915.732813,1777900747.326089,-1125,-1700,263,-3,-1,0,-0.549316,-0.830078,0.128418,-0.183105,-0.061035,0.000000,21.18,0
546882247,21915.732820,1777900747.327101,-1126,-1701,264,-3,-1,-1,-0.549805,-0.830566,0.128906,-0.183105,-0.061035,-0.061035,21.35,0
546883258,21915.732827,1777900747.328113,-1127,-1701,265,-3,-1,-1,-0.550293,-0.830566,0.129395,-0.183105,-0.061035,-0.061035,21.12,0
546884271,21915.732834,1777900747.329125,-1126,-1700,263,-3,-1,0,-0.549805,-0.830078,0.128418,-0.183105,-0.061035,0.000000,21.38,0
546885284,21915.732841,1777900747.330138,-1125,-1699,263,-4,-1,1,-0.549316,-0.829590,0.128418,-0.244141,-0.061035,0.061035,21.33,0
546886296,21915.732848,1777900747.331151,-1125,-1699,264,-4,-1,1,-0.549316,-0.829590,0.128906,-0.244141,-0.061035,0.061035,21.17,1
546887308,21915.732856,1777900747.332162,-1125,-1698,264,-3,-1,0,-0.549316,-0.829102,0.128906,-0.183105,-0.061035,0.000000,21.32,0
546888321,21915.740908,1777900747.333189,-1125,-1697,262,-1,-1,-1,-0.549316,-0.828613,0.127930,-0.061035,-0.061035,-0.061035,21.26,0
546889331,21915.740918,1777900747.334199,-1123,-1699,260,-1,0,-1,-0.548340,-0.829590,0.126953,-0.061035,0.000000,-0.061035,21.33,0
546890344,21915.740925,1777900747.335212,-1120,-1700,261,-2,-1,0,-0.546875,-0.830078,0.127441,-0.122070,-0.061035,0.000000,21.29,0
546891357,21915.740932,1777900747.336225,-1121,-1700,265,-3,-1,1,-0.547363,-0.830078,0.129395,-0.183105,-0.061035,0.061035,21.18,0
546892368,21915.740939,1777900747.337236,-1124,-1701,266,-3,-1,0,-0.548828,-0.830566,0.129883,-0.183105,-0.061035,0.000000,21.14,0
546893382,21915.740946,1777900747.338250,-1125,-1700,266,-3,-2,0,-0.549316,-0.830078,0.129883,-0.183105,-0.122070,0.000000,21.30,0
546894394,21915.740953,1777900747.339262,-1123,-1697,266,-3,-2,0,-0.548340,-0.828613,0.129883,-0.183105,-0.122070,0.000000,21.29,0
546895404,21915.740960,1777900747.340272,-1124,-1697,263,-2,-1,-1,-0.548828,-0.828613,0.128418,-0.122070,-0.061035,-0.061035,21.35,0
546896418,21915.749044,1777900747.341286,-1125,-1698,264,-2,-1,0,-0.549316,-0.829102,0.128906,-0.122070,-0.061035,0.000000,21.23,0
546897429,21915.749077,1777900747.342309,-1120,-1696,264,-3,-2,0,-0.546875,-0.828125,0.128906,-0.183105,-0.122070,0.000000,21.32,1
546898443,21915.749091,1777900747.343323,-1122,-1697,262,-3,-2,-1,-0.547852,-0.828613,0.127930,-0.183105,-0.122070,-0.061035,21.18,0
546899455,21915.749102,1777900747.344335,-1125,-1698,262,-2,-1,-2,-0.549316,-0.829102,0.127930,-0.122070,-0.061035,-0.122070,21.26,0
546900468,21915.749112,1777900747.345348,-1123,-1699,264,-2,-1,-1,-0.548340,-0.829590,0.128906,-0.122070,-0.061035,-0.061035,21.38,0
546901479,21915.749123,1777900747.346359,-1121,-1700,265,-3,-2,0,-0.547363,-0.830078,0.129395,-0.183105,-0.122070,0.000000,21.23,0
546902491,21915.749133,1777900747.347371,-1122,-1696,263,-3,-2,-1,-0.547852,-0.828125,0.128418,-0.183105,-0.122070,-0.061035,21.33,0
546903504,21915.749143,1777900747.348384,-1125,-1698,259,-3,-2,-1,-0.549316,-0.829102,0.126465,-0.183105,-0.122070,-0.061035,21.32,0
546904516,21915.757072,1777900747.349396,-1126,-1702,257,-3,-1,-1,-0.549805,-0.831055,0.125488,-0.183105,-0.061035,-0.061035,21.26,0
546905527,21915.757090,1777900747.350407,-1124,-1700,262,-3,-2,-1,-0.548828,-0.830078,0.127930,-0.183105,-0.122070,-0.061035,21.17,0
546906542,21915.757101,1777900747.351422,-1123,-1701,266,-3,-2,0,-0.548340,-0.830566,0.129883,-0.183105,-0.122070,0.000000,21.12,0
546907553,21915.757111,1777900747.352433,-1125,-1701,266,-4,-2,1,-0.549316,-0.830566,0.129883,-0.244141,-0.122070,0.061035,21.32,0
546908564,21915.757121,1777900747.353444,-1127,-1699,265,-4,-2,0,-0.550293,-0.829590,0.129395,-0.244141,-0.122070,0.000000,21.23,1
546909577,21915.757134,1777900747.354457,-1126,-1695,265,-3,-2,-1,-0.549805,-0.827637,0.129395,-0.183105,-0.122070,-0.061035,21.14,0
546910591,21915.757145,1777900747.355471,-1121,-1698,264,-3,-1,-2,-0.547363,-0.829102,0.128906,-0.183105,-0.061035,-0.122070,21.11,0
546911602,21915.757157,1777900747.356482,-1122,-1704,263,-3,-1,-1,-0.547852,-0.832031,0.128418,-0.183105,-0.061035,-0.061035,21.38,0
546912614,21915.765196,1777900747.357505,-1123,-1703,262,-3,-1,1,-0.548340,-0.831543,0.127930,-0.183105,-0.061035,0.061035,21.24,0
546913626,21915.765210,1777900747.358517,-1120,-1700,263,-2,-1,0,-0.546875,-0.830078,0.128418,-0.122070,-0.061035,0.000000,21.14,0
546914639,21915.765217,1777900747.359530,-1121,-1700,264,-2,-1,0,-0.547363,-0.830078,0.128906,-0.122070,-0.061035,0.000000,21.30,0
546915651,21915.765224,1777900747.360542,-1123,-1701,266,-3,0,-1,-0.548340,-0.830566,0.129883,-0.183105,0.000000,-0.061035,21.14,0
546916663,21915.765231,1777900747.361554,-1123,-1701,267,-3,0,-1,-0.548340,-0.830566,0.130371,-0.183105,0.000000,-0.061035,21.32,0
546917677,21915.765238,1777900747.362568,-1122,-1701,265,-2,-1,-2,-0.547852,-0.830566,0.129395,-0.122070,-0.061035,-0.122070,21.29,0
546918686,21915.765245,1777900747.363577,-1122,-1700,263,-3,-2,-1,-0.547852,-0.830078,0.128418,-0.183105,-0.122070,-0.061035,21.44,0
546919700,21915.765252,1777900747.364591,-1125,-1698,262,-3,-2,0,-0.549316,-0.829102,0.127930,-0.183105,-0.122070,0.000000,21.32,1
546920713,21915.773292,1777900747.365613,-1126,-1700,263,-2,-1,-1,-0.549805,-0.830078,0.128418,-0.122070,-0.061035,-0.061035,21.17,0
546921723,21915.773306,1777900747.366623,-1123,-1700,264,-2,-1,-1,-0.548340,-0.830078,0.128906,-0.122070,-0.061035,-0.061035,21.24,0
546922736,21915.773314,1777900747.367636,-1121,-1695,263,-2,-1,0,-0.547363,-0.827637,0.128418,-0.122070,-0.061035,0.000000,21.11,0
546923749,21915.773321,1777900747.368649,-1122,-1695,262,-2,-2,0,-0.547852,-0.827637,0.127930,-0.122070,-0.122070,0.000000,21.20,0
546924760,21915.773328,1777900747.369660,-1122,-1697,263,-2,-1,-1,-0.547852,-0.828613,0.128418,-0.122070,-0.061035,-0.061035,21.30,0
546925775,21915.773335,1777900747.370675,-1121,-1697,264,-3,-1,-1,-0.547363,-0.828613,0.128906,-0.183105,-0.061035,-0.061035,21.38,0
546926786,21915.773377,1777900747.371686,-1123,-1697,263,-3,-1,-1,-0.548340,-0.828613,0.128418,-0.183105,-0.061035,-0.061035,21.17,0
546927798,21915.773384,1777900747.372698,-1125,-1700,264,-3,-2,0,-0.549316,-0.830078,0.128906,-0.183105,-0.122070,0.000000,21.27,0
546928811,21915.781377,1777900747.373711,-1124,-1700,262,-4,-1,0,-0.548828,-0.830078,0.127930,-0.244141,-0.061035,0.000000,21.14,0
546929823,21915.781398,1777900747.374723,-1124,-1699,260,-3,-1,-1,-0.548828,-0.829590,0.126953,-0.183105,-0.061035,-0.061035,21.27,0
546930836,21915.781409,1777900747.375746,-1126,-1702,264,-2,-2,-1,-0.549805,-0.831055,0.128906,-0.122070,-0.122070,-0.061035,21.26,1
546931848,21915.781422,1777900747.376757,-1123,-1704,266,-3,-2,0,-0.548340,-0.832031,0.129883,-0.183105,-0.122070,0.000000,21.29,0
546932860,21915.781433,1777900747.377769,-1121,-1703,264,-4,-1,-1,-0.547363,-0.831543,0.128906,-0.244141,-0.061035,-0.061035,21.23,0
546933872,21915.781443,1777900747.378781,-1124,-1701,264,-4,-1,0,-0.548828,-0.830566,0.128906,-0.244141,-0.061035,0.000000,21.30,0
546934884,21915.781454,1777900747.379793,-1124,-1696,267,-3,-2,0,-0.548828,-0.828125,0.130371,-0.183105,-0.122070,0.000000,21.17,0
546935897,21915.781465,1777900747.380806,-1122,-1693,266,-3,-1,1,-0.547852,-0.826660,0.129883,-0.183105,-0.061035,0.061035,21.23,0
546936908,21915.789465,1777900747.381817,-1124,-1696,264,-3,-1,1,-0.548828,-0.828125,0.128906,-0.183105,-0.061035,0.061035,21.27,0
546937919,21915.789479,1777900747.382828,-1127,-1699,266,-2,-1,1,-0.550293,-0.829590,0.129883,-0.122070,-0.061035,0.061035,21.36,0
546938931,21915.789486,1777900747.383840,-1123,-1698,269,-2,-2,0,-0.548340,-0.829102,0.131348,-0.122070,-0.122070,0.000000,21.17,0
546939945,21915.789493,1777900747.384854,-1122,-1698,269,-3,-2,0,-0.547852,-0.829102,0.131348,-0.183105,-0.122070,0.000000,21.29,0
546940956,21915.789500,1777900747.385865,-1125,-1700,265,-3,-1,-1,-0.549316,-0.830078,0.129395,-0.183105,-0.061035,-0.061035,21.35,0
546941969,21915.789507,1777900747.386878,-1125,-1701,261,-4,-1,-1,-0.549316,-0.830566,0.127441,-0.244141,-0.061035,-0.061035,21.36,1
546942982,21915.789515,1777900747.387891,-1124,-1701,261,-3,-1,-1,-0.548828,-0.830566,0.127441,-0.183105,-0.061035,-0.061035,21.06,0
546943994,21915.789522,1777900747.388903,-1126,-1700,263,-2,-1,-1,-0.549805,-0.830078,0.128418,-0.122070,-0.061035,-0.061035,21.26,0
546945006,21915.797601,1777900747.389923,-1127,-1700,263,-1,-1,0,-0.550293,-0.830078,0.128418,-0.061035,-0.061035,0.000000,21.38,0
546946020,21915.797625,1777900747.390937,-1128,-1702,262,-2,-2,1,-0.550781,-0.831055,0.127930,-0.122070,-0.122070,0.061035,21.33,0
546947032,21915.797633,1777900747.391949,-1125,-1700,263,-3,-2,-1,-0.549316,-0.830078,0.128418,-0.183105,-0.122070,-0.061035,21.15,0
546948042,21915.797640,1777900747.392959,-1125,-1700,265,-2,-1,-2,-0.549316,-0.830078,0.129395,-0.122070,-0.061035,-0.122070,21.29,0
546949056,21915.797647,1777900747.393973,-1123,-1700,265,-2,-1,-1,-0.548340,-0.830078,0.129395,-0.122070,-0.061035,-0.061035,21.23,0
546950066,21915.797653,1777900747.394983,-1120,-1700,266,-2,-1,-1,-0.546875,-0.830078,0.129883,-0.122070,-0.061035,-0.061035,21.33,0
546951080,21915.797660,1777900747.395997,-1122,-1702,266,-2,-1,0,-0.547852,-0.831055,0.129883,-0.122070,-0.061035,0.000000,21.18,0
546952099,21915.797667,1777900747.397016,-1125,-1699,264,-2,-2,0,-0.549316,-0.829590,0.128906,-0.122070,-0.122070,0.000000,21.24,0
546953105,21915.805667,1777900747.398030,-1124,-1694,263,-3,-2,0,-0.548828,-0.827148,0.128418,-0.183105,-0.122070,0.000000,21.29,1
546954117,21915.805682,1777900747.399042,-1123,-1698,265,-3,-2,0,-0.548340,-0.829102,0.129395,-0.183105,-0.122070,0.000000,21.26,0
546955129,21915.805689,1777900747.400054,-1124,-1706,266,-3,-2,0,-0.548828,-0.833008,0.129883,-0.183105,-0.122070,0.000000,21.15,0
546956140,21915.805696,1777900747.401064,-1126,-1707,266,-2,-1,0,-0.549805,-0.833496,0.129883,-0.122070,-0.061035,0.000000,21.39,0
546957154,21915.805704,1777900747.402078,-1124,-1705,264,-2,-1,0,-0.548828,-0.832520,0.128906,-0.122070,-0.061035,0.000000,21.20,0
546958166,21915.805711,1777900747.403090,-1121,-1702,265,-3,-1,0,-0.547363,-0.831055,0.129395,-0.183105,-0.061035,0.000000,21.14,0
546959176,21915.805717,1777900747.404100,-1122,-1699,266,-4,-1,-1,-0.547852,-0.829590,0.129883,-0.244141,-0.061035,-0.061035,21.14,0
546960190,21915.805724,1777900747.405114,-1127,-1694,263,-3,0,-1,-0.550293,-0.827148,0.128418,-0.183105,0.000000,-0.061035,21.18,0
546961203,21915.813774,1777900747.406127,-1126,-1695,261,-2,0,0,-0.549805,-0.827637,0.127441,-0.122070,0.000000,0.000000,21.17,0
546962213,21915.813790,1777900747.407137,-1122,-1698,261,-3,0,0,-0.547852,-0.829102,0.127441,-0.183105,0.000000,0.000000,21.38,0
546963228,21915.813798,1777900747.408152,-1122,-1699,262,-3,-1,0,-0.547852,-0.829590,0.127930,-0.183105,-0.061035,0.000000,21.12,0
546964240,21915.813805,1777900747.409171,-1124,-1700,264,-2,-1,0,-0.548828,-0.830078,0.128906,-0.122070,-0.061035,0.000000,21.20,1
546965250,21915.813814,1777900747.410181,-1122,-1700,267,-2,-1,0,-0.547852,-0.830078,0.130371,-0.122070,-0.061035,0.000000,21.29,0
546966262,21915.813822,1777900747.411193,-1124,-1698,266,-3,-1,0,-0.548828,-0.829102,0.129883,-0.183105,-0.061035,0.000000,21.30,0
546967277,21915.813829,1777900747.412208,-1128,-1699,266,-3,-1,0,-0.550781,-0.829590,0.129883,-0.183105,-0.061035,0.000000,21.27,0
546968288,21915.813836,1777900747.413219,-1125,-1699,264,-3,-1,0,-0.549316,-0.829590,0.128906,-0.183105,-0.061035,0.000000,21.30,0
546969299,21915.821902,1777900747.414230,-1121,-1699,261,-3,-1,1,-0.547363,-0.829590,0.127441,-0.183105,-0.061035,0.061035,21.29,0
546970311,21915.821921,1777900747.415242,-1123,-1699,262,-2,-2,1,-0.548340,-0.829590,0.127930,-0.122070,-0.122070,0.061035,21.26,0
546971324,21915.821931,1777900747.416255,-1124,-1698,265,-2,-1,0,-0.548828,-0.829102,0.129395,-0.122070,-0.061035,0.000000,21.29,0
546972337,21915.821940,1777900747.417268,-1122,-1699,264,-3,-1,-1,-0.547852,-0.829590,0.128906,-0.183105,-0.061035,-0.061035,21.20,0
546973348,21915.821949,1777900747.418279,-1122,-1702,262,-4,-1,-1,-0.547852,-0.831055,0.127930,-0.244141,-0.061035,-0.061035,21.30,0
546974362,21915.821958,1777900747.419293,-1124,-1702,259,-3,-2,-1,-0.548828,-0.831055,0.126465,-0.183105,-0.122070,-0.061035,21.20,0
546975374,21915.821967,1777900747.420305,-1121,-1699,260,-3,-1,-1,-0.547363,-0.829590,0.126953,-0.183105,-0.061035,-0.061035,21.35,1
546976388,21915.821977,1777900747.421319,-1121,-1700,266,-4,-1,0,-0.547363,-0.830078,0.129883,-0.244141,-0.061035,0.000000,21.33,0
546977397,21915.829967,1777900747.422334,-1125,-1701,267,-4,-1,1,-0.549316,-0.830566,0.130371,-0.244141,-0.061035,0.061035,21.26,0
546978411,21915.829988,1777900747.423348,-1125,-1701,265,-3,-1,-1,-0.549316,-0.830566,0.129395,-0.183105,-0.061035,-0.061035,21.29,0
546979424,21915.829999,1777900747.424361,-1125,-1701,264,-3,-1,-1,-0.549316,-0.830566,0.128906,-0.183105,-0.061035,-0.061035,21.24,0
546980434,21915.830019,1777900747.425371,-1124,-1702,263,-4,-1,0,-0.548828,-0.831055,0.128418,-0.244141,-0.061035,0.000000,21.07,0
546981449,21915.830031,1777900747.426386,-1122,-1703,265,-4,-1,1,-0.547852,-0.831543,0.129395,-0.244141,-0.061035,0.061035,21.33,0
546982459,21915.830042,1777900747.427396,-1119,-1701,264,-3,-1,1,-0.546387,-0.830566,0.128906,-0.183105,-0.061035,0.061035,21.29,0
546983473,21915.830052,1777900747.428410,-1120,-1697,260,-2,-2,0,-0.546875,-0.828613,0.126953,-0.122070,-0.122070,0.000000,21.15,0
546984485,21915.830063,1777900747.429422,-1121,-1699,260,-2,-2,-1,-0.547363,-0.829590,0.126953,-0.122070,-0.122070,-0.061035,21.39,0
546985497,21915.838061,1777900747.430434,-1124,-1702,263,-3,-1,0,-0.548828,-0.831055,0.128418,-0.183105,-0.061035,0.000000,21.41,0
546986508,21915.838080,1777900747.431450,-1124,-1700,266,-4,-1,0,-0.548828,-0.830078,0.129883,-0.244141,-0.061035,0.000000,21.33,1
546987522,21915.838093,1777900747.432464,-1123,-1698,268,-4,-1,-1,-0.548340,-0.829102,0.130859,-0.244141,-0.061035,-0.061035,21.17,0
546988533,21915.838104,1777900747.433475,-1125,-1698,268,-3,0,0,-0.549316,-0.829102,0.130859,-0.183105,0.000000,0.000000,21.42,0
546989546,21915.838150,1777900747.434488,-1125,-1699,266,-3,0,0,-0.549316,-0.829590,0.129883,-0.183105,0.000000,0.000000,21.32,0
546990558,21915.838175,1777900747.435500,-1125,-1697,265,-3,-2,0,-0.549316,-0.828613,0.129395,-0.183105,-0.122070,0.000000,21.23,0
546991569,21915.838186,1777900747.436511,-1125,-1698,263,-2,-2,0,-0.549316,-0.829102,0.128418,-0.122070,-0.122070,0.000000,21.29,0
546992583,21915.838197,1777900747.437525,-1121,-1701,264,-2,-1,0,-0.547363,-0.830566,0.128906,-0.122070,-0.061035,0.000000,21.26,0
546993593,21915.846156,1777900747.438535,-1120,-1700,267,-3,-1,-1,-0.546875,-0.830078,0.130371,-0.183105,-0.061035,-0.061035,21.23,0
546994605,21915.846167,1777900747.439547,-1125,-1697,264,-3,-2,-2,-0.549316,-0.828613,0.128906,-0.183105,-0.122070,-0.122070,21.17,0
546995620,21915.846174,1777900747.440562,-1124,-1700,260,-3,-2,-1,-0.548828,-0.830078,0.126953,-0.183105,-0.122070,-0.061035,21.17,0
546996632,21915.846181,1777900747.441574,-1122,-1701,263,-3,-1,0,-0.547852,-0.830566,0.128418,-0.183105,-0.061035,0.000000,21.26,0
546997643,21915.846188,1777900747.442585,-1127,-1699,266,-3,0,-1,-0.550293,-0.829590,0.129883,-0.183105,0.000000,-0.061035,21.20,1
546998655,21915.846196,1777900747.443597,-1128,-1699,266,-3,-1,-1,-0.550781,-0.829590,0.129883,-0.183105,-0.061035,-0.061035,21.29,0
546999669,21915.846203,1777900747.444611,-1123,-1700,264,-3,-1,0,-0.548340,-0.830078,0.128906,-0.183105,-0.061035,0.000000,21.41,0
547000680,21915.846210,1777900747.445622,-1123,-1700,263,-4,-1,0,-0.548340,-0.830078,0.128418,-0.244141,-0.061035,0.000000,21.15,0
547001693,21915.854293,1777900747.446640,-1126,-1702,266,-4,-1,0,-0.549805,-0.831055,0.129883,-0.244141,-0.061035,0.000000,21.24,0
547002706,21915.854312,1777900747.447653,-1125,-1700,266,-3,0,-1,-0.549316,-0.830078,0.129883,-0.183105,0.000000,-0.061035,21.14,0
547003718,21915.854322,1777900747.448665,-1123,-1696,263,-3,0,0,-0.548340,-0.828125,0.128418,-0.183105,0.000000,0.000000,21.35,0
547004730,21915.854331,1777900747.449677,-1123,-1696,263,-3,-2,1,-0.548340,-0.828125,0.128418,-0.183105,-0.122070,0.061035,21.23,0
547005740,21915.854340,1777900747.450687,-1124,-1698,264,-3,-3,0,-0.548828,-0.829102,0.128906,-0.183105,-0.183105,0.000000,21.26,0
547006755,21915.854349,1777900747.451702,-1125,-1699,267,-3,-2,-1,-0.549316,-0.829590,0.130371,-0.183105,-0.122070,-0.061035,21.15,0
547007766,21915.854358,1777900747.452713,-1123,-1700,269,-4,-2,-1,-0.548340,-0.830078,0.131348,-0.244141,-0.122070,-0.061035,21.15,0
547008779,21915.854366,1777900747.453726,-1121,-1699,265,-3,-2,-1,-0.547363,-0.829590,0.129395,-0.183105,-0.122070,-0.061035,21.14,1
547009791,21915.862373,1777900747.454742,-1124,-1699,265,-2,-1,-2,-0.548828,-0.829590,0.129395,-0.122070,-0.061035,-0.122070,21.26,0
547010802,21915.862390,1777900747.455753,-1125,-1697,268,-2,0,-2,-0.549316,-0.828613,0.130859,-0.122070,0.000000,-0.122070,21.17,0
547011815,21915.862398,1777900747.456766,-1123,-1698,265,-3,-2,-1,-0.548340,-0.829102,0.129395,-0.183105,-0.122070,-0.061035,21.29,0
547012828,21915.862406,1777900747.457779,-1126,-1702,260,-4,-2,0,-0.549805,-0.831055,0.126953,-0.244141,-0.122070,0.000000,21.29,0
547013841,21915.862413,1777900747.458792,-1128,-1700,264,-4,-1,-1,-0.550781,-0.830078,0.128906,-0.244141,-0.061035,-0.061035,21.26,0
547014851,21915.862420,1777900747.459802,-1123,-1701,265,-3,-1,-1,-0.548340,-0.830566,0.129395,-0.183105,-0.061035,-0.061035,21.12,0
547015866,21915.862427,1777900747.460817,-1120,-1704,262,-2,-1,-1,-0.546875,-0.832031,0.127930,-0.122070,-0.061035,-0.061035,21.26,0
547016877,21915.862435,1777900747.461828,-1124,-1701,262,-3,-1,-1,-0.548828,-0.830566,0.127930,-0.183105,-0.061035,-0.061035,21.26,0
547017888,21915.871494,1777900747.462839,-1125,-1697,262,-4,0,-1,-0.549316,-0.828613,0.127930,-0.244141,0.000000,-0.061035,21.30,0
547018900,21915.871511,1777900747.463851,-1123,-1698,265,-3,-1,0,-0.548340,-0.829102,0.129395,-0.183105,-0.061035,0.000000,21.33,0
547019912,21915.871519,1777900747.464867,-1124,-1700,266,-3,-2,0,-0.548828,-0.830078,0.129883,-0.183105,-0.122070,0.000000,21.14,1
547020925,21915.871529,1777900747.465880,-1126,-1700,263,-3,-2,0,-0.549805,-0.830078,0.128418,-0.183105,-0.122070,0.000000,21.36,0
547021937,21915.871536,1777900747.466892,-1126,-1699,265,-3,-2,0,-0.549805,-0.829590,0.129395,-0.183105,-0.122070,0.000000,21.38,0
547022951,21915.871543,1777900747.467906,-1124,-1700,266,-3,-1,0,-0.548828,-0.830078,0.129883,-0.183105,-0.061035,0.000000,21.30,0
547023963,21915.871550,1777900747.468918,-1121,-1703,261,-3,0,-1,-0.547363,-0.831543,0.127441,-0.183105,0.000000,-0.061035,21.27,0
547024976,21915.871557,1777900747.469931,-1120,-1699,261,-3,0,-1,-0.546875,-0.829590,0.127441,-0.183105,0.000000,-0.061035,21.30,0
547025988,21915.878570,1777900747.470943,-1122,-1695,261,-3,-1,-1,-0.547852,-0.827637,0.127441,-0.183105,-0.061035,-0.061035,21.32,0
547027000,21915.878585,1777900747.471955,-1124,-1696,264,-3,-1,-1,-0.548828,-0.828125,0.128906,-0.183105,-0.061035,-0.061035,21.36,0
547028013,21915.878595,1777900747.472968,-1123,-1699,267,-4,-1,0,-0.548340,-0.829590,0.130371,-0.244141,-0.061035,0.000000,21.42,0
547029024,21915.878602,1777900747.473979,-1124,-1698,265,-4,0,0,-0.548828,-0.829102,0.129395,-0.244141,0.000000,0.000000,21.38,0
547030035,21915.878609,1777900747.474990,-1127,-1697,264,-3,-1,-1,-0.550293,-0.828613,0.128906,-0.183105,-0.061035,-0.061035,21.35,0
547031049,21915.878616,1777900747.476004,-1128,-1701,266,-2,-2,-1,-0.550781,-0.830566,0.129883,-0.122070,-0.122070,-0.061035,21.14,1
547032060,21915.878624,1777900747.477015,-1124,-1703,268,-2,-2,0,-0.548828,-0.831543,0.130859,-0.122070,-0.122070,0.000000,21.38,0
547033074,21915.878631,1777900747.478029,-1123,-1699,267,-4,-1,-1,-0.548340,-0.829590,0.130371,-0.244141,-0.061035,-0.061035,21.38,0
547034095,21915.886654,1777900747.479053,-1126,-1700,264,-5,-1,-1,-0.549805,-0.830078,0.128906,-0.305176,-0.061035,-0.061035,21.44,0
547035101,21915.886675,1777900747.480059,-1126,-1700,265,-4,-2,-1,-0.549805,-0.830078,0.129395,-0.244141,-0.122070,-0.061035,21.21,0
547036108,21915.886682,1777900747.481066,-1123,-1698,271,-3,-2,0,-0.548340,-0.829102,0.132324,-0.183105,-0.122070,0.000000,21.27,0
547037122,21915.886689,1777900747.482080,-1120,-1699,268,-2,-1,0,-0.546875,-0.829590,0.130859,-0.122070,-0.061035,0.000000,21.20,0
547038134,21915.886697,1777900747.483092,-1123,-1700,262,-2,-1,1,-0.548340,-0.830078,0.127930,-0.122070,-0.061035,0.061035,21.09,0
547039146,21915.886704,1777900747.484104,-1126,-1698,264,-2,-1,1,-0.549805,-0.829102,0.128906,-0.122070,-0.061035,0.061035,21.04,0
547040157,21915.886711,1777900747.485115,-1126,-1700,264,-2,-1,-1,-0.549805,-0.830078,0.128906,-0.122070,-0.061035,-0.061035,21.33,0
547041170,21915.886718,1777900747.486128,-1125,-1703,262,-2,-1,-1,-0.549316,-0.831543,0.127930,-0.122070,-0.061035,-0.061035,21.33,0
547042183,21915.894737,1777900747.487145,-1123,-1702,264,-3,-2,-1,-0.548340,-0.831055,0.128906,-0.183105,-0.122070,-0.061035,21.27,1
547043194,21915.894751,1777900747.488156,-1122,-1700,263,-3,-2,-1,-0.547852,-0.830078,0.128418,-0.183105,-0.122070,-0.061035,21.17,0
547044208,21915.894759,1777900747.489170,-1124,-1701,262,-3,-1,-1,-0.548828,-0.830566,0.127930,-0.183105,-0.061035,-0.061035,21.15,0
547045220,21915.894766,1777900747.490182,-1123,-1698,263,-2,0,-1,-0.548340,-0.829102,0.128418,-0.122070,0.000000,-0.061035,21.17,0
547046232,21915.894773,1777900747.491194,-1121,-1694,265,-2,-1,0,-0.547363,-0.827148,0.129395,-0.122070,-0.061035,0.000000,21.26,0
547047245,21915.894780,1777900747.492207,-1126,-1699,267,-4,-1,0,-0.549805,-0.829590,0.130371,-0.244141,-0.061035,0.000000,21.38,0
547048258,21915.894787,1777900747.493220,-1130,-1703,265,-4,-1,0,-0.551758,-0.831543,0.129395,-0.244141,-0.061035,0.000000,21.38,0
547049269,21915.894794,1777900747.494231,-1127,-1699,261,-3,-1,0,-0.550293,-0.829590,0.127441,-0.183105,-0.061035,0.000000,21.23,0
547050282,21915.902856,1777900747.495244,-1123,-1697,266,-4,-1,0,-0.548340,-0.828613,0.129883,-0.244141,-0.061035,0.000000,21.35,0
547051295,21915.902870,1777900747.496257,-1123,-1699,270,-3,-1,-1,-0.548340,-0.829590,0.131836,-0.183105,-0.061035,-0.061035,21.32,0
547052305,21915.902877,1777900747.497267,-1123,-1701,265,-3,-1,0,-0.548340,-0.830566,0.129395,-0.183105,-0.061035,0.000000,21.12,0
547053318,21915.902921,1777900747.498282,-1121,-1699,262,-3,-2,0,-0.547363,-0.829590,0.127930,-0.183105,-0.122070,0.000000,21.20,1
547054331,21915.902929,1777900747.499295,-1120,-1699,265,-3,-2,-1,-0.546875,-0.829590,0.129395,-0.183105,-0.122070,-0.061035,21.33,0
547055344,21915.902936,1777900747.500308,-1124,-1702,267,-3,-2,-1,-0.548828,-0.831055,0.130371,-0.183105,-0.122070,-0.061035,21.15,0
547056355,21915.902943,1777900747.501319,-1125,-1704,267,-5,-1,-1,-0.549316,-0.832031,0.130371,-0.305176,-0.061035,-0.061035,21.26,0
547057365,21915.902950,1777900747.502329,-1123,-1700,266,-4,-1,0,-0.548340,-0.830078,0.129883,-0.244141,-0.061035,0.000000,21.36,0
547058379,21915.910943,1777900747.503343,-1122,-1696,265,-2,-2,0,-0.547852,-0.828125,0.129395,-0.122070,-0.122070,0.000000,21.18,0
547059390,21915.910956,1777900747.504354,-1120,-1697,265,-2,-2,-1,-0.546875,-0.828613,0.129395,-0.122070,-0.122070,-0.061035,21.29,0
547060402,21915.910963,1777900747.505366,-1120,-1699,265,-4,-2,-2,-0.546875,-0.829590,0.129395,-0.244141,-0.122070,-0.122070,21.20,0
547061417,21915.910970,1777900747.506381,-1123,-1698,267,-5,-1,-1,-0.548340,-0.829102,0.130371,-0.305176,-0.061035,-0.061035,21.27,0
547062428,21915.910977,1777900747.507392,-1125,-1697,268,-3,-1,-1,-0.549316,-0.828613,0.130859,-0.183105,-0.061035,-0.061035,21.20,0
547063440,21915.910984,1777900747.508404,-1124,-1696,265,-3,-2,-1,-0.548828,-0.828125,0.129395,-0.183105,-0.122070,-0.061035,21.18,0
547064453,21915.910991,1777900747.509417,-1123,-1696,264,-2,-2,-1,-0.548340,-0.828125,0.128906,-0.122070,-0.122070,-0.061035,21.23,1
547065466,21915.910999,1777900747.510430,-1122,-1698,263,-2,-1,-1,-0.547852,-0.829102,0.128418,-0.122070,-0.061035,-0.061035,21.33,0
547066477,21915.919025,1777900747.511444,-1122,-1699,258,-3,-1,0,-0.547852,-0.829590,0.125977,-0.183105,-0.061035,0.000000,21.29,0
547067489,21915.919035,1777900747.512456,-1123,-1700,259,-3,-1,-1,-0.548340,-0.830078,0.126465,-0.183105,-0.061035,-0.061035,21.27,0
547068500,21915.919042,1777900747.513467,-1123,-1700,264,-3,-1,-1,-0.548340,-0.830078,0.128906,-0.183105,-0.061035,-0.061035,21.23,0
547069514,21915.919049,1777900747.514481,-1124,-1702,264,-3,-2,-1,-0.548828,-0.831055,0.128906,-0.183105,-0.122070,-0.061035,21.17,0
547070526,21915.919056,1777900747.515493,-1125,-1704,262,-4,-1,0,-0.549316,-0.832031,0.127930,-0.244141,-0.061035,0.000000,21.20,0
547071537,21915.919063,1777900747.516504,-1124,-1702,262,-3,-1,0,-0.548828,-0.831055,0.127930,-0.183105,-0.061035,0.000000,21.38,0
547072552,21915.919070,1777900747.517519,-1120,-1700,265,-2,-1,0,-0.546875,-0.830078,0.129395,-0.122070,-0.061035,0.000000,21.33,0
547073564,21915.919077,1777900747.518531,-1121,-1698,262,-2,-2,0,-0.547363,-0.829102,0.127930,-0.122070,-0.122070,0.000000,21.20,0
547074575,21915.927144,1777900747.519542,-1125,-1697,262,-3,-2,0,-0.549316,-0.828613,0.127930,-0.183105,-0.122070,0.000000,21.33,0
547075586,21915.927160,1777900747.520555,-1125,-1698,266,-2,-1,0,-0.549316,-0.829102,0.129883,-0.122070,-0.061035,0.000000,21.21,1
547076601,21915.927172,1777900747.521570,-1125,-1699,268,-2,-1,0,-0.549316,-0.829590,0.130859,-0.122070,-0.061035,0.000000,21.23,0
547077611,21915.927183,1777900747.522580,-1124,-1698,268,-3,-2,0,-0.548828,-0.829102,0.130859,-0.183105,-0.122070,0.000000,21.17,0
547078625,21915.927193,1777900747.523594,-1123,-1700,266,-3,0,-1,-0.548340,-0.830078,0.129883,-0.183105,0.000000,-0.061035,21.32,0
547079637,21915.927203,1777900747.524606,-1126,-1701,261,-2,0,0,-0.549805,-0.830566,0.127441,-0.122070,0.000000,0.000000,21.23,0
547080650,21915.927213,1777900747.525619,-1129,-1699,262,-2,-1,0,-0.551270,-0.829590,0.127930,-0.122070,-0.061035,0.000000,21.23,0
547081661,21915.927223,1777900747.526630,-1128,-1698,265,-3,-1,-1,-0.550781,-0.829102,0.129395,-0.183105,-0.061035,-0.061035,21.26,0
547082672,21915.935609,1777900747.527641,-1125,-1697,264,-3,0,0,-0.549316,-0.828613,0.128906,-0.183105,0.000000,0.000000,21.35,0
547083686,21915.935630,1777900747.528655,-1123,-1696,265,-3,-1,0,-0.548340,-0.828125,0.129395,-0.183105,-0.061035,0.000000,21.39,0
547084699,21915.935639,1777900747.529668,-1122,-1697,265,-3,-2,0,-0.547852,-0.828613,0.129395,-0.183105,-0.122070,0.000000,21.35,0
547085709,21915.935648,1777900747.530678,-1124,-1699,261,-4,-1,-1,-0.548828,-0.829590,0.127441,-0.244141,-0.061035,-0.061035,21.07,0
547086723,21915.935657,1777900747.531692,-1124,-1698,259,-3,0,0,-0.548828,-0.829102,0.126465,-0.183105,0.000000,0.000000,21.20,1
547087735,21915.935670,1777900747.532704,-1122,-1697,264,-2,-1,0,-0.547852,-0.828613,0.128906,-0.122070,-0.061035,0.000000,21.17,0
547088746,21915.935678,1777900747.533715,-1122,-1697,268,-2,-1,0,-0.547852,-0.828613,0.130859,-0.122070,-0.061035,0.000000,21.23,0
547089758,21915.935687,1777900747.534727,-1123,-1699,266,-3,-1,0,-0.548340,-0.829590,0.129883,-0.183105,-0.061035,0.000000,21.27,0
547090771,21915.943321,1777900747.535742,-1122,-1700,266,-2,-1,-1,-0.547852,-0.830078,0.129883,-0.122070,-0.061035,-0.061035,21.17,0
547091783,21915.943335,1777900747.536754,-1121,-1700,266,-2,-2,-2,-0.547363,-0.830078,0.129883,-0.122070,-0.122070,-0.122070,21.20,0
547092795,21915.943342,1777900747.537766,-1121,-1700,263,-3,-2,-1,-0.547363,-0.830078,0.128418,-0.183105,-0.122070,-0.061035,21.29,0
547093809,21915.943348,1777900747.538780,-1122,-1702,263,-4,-1,0,-0.547852,-0.831055,0.128418,-0.244141,-0.061035,0.000000,21.32,0
547094821,21915.943355,1777900747.539792,-1123,-1700,263,-3,-2,0,-0.548340,-0.830078,0.128418,-0.183105,-0.122070,0.000000,21.26,0
547095832,21915.943362,1777900747.540803,-1125,-1698,261,-3,-2,0,-0.549316,-0.829102,0.127441,-0.183105,-0.122070,0.000000,21.35,0
547096846,21915.943368,1777900747.541817,-1124,-1699,264,-3,-1,-1,-0.548828,-0.829590,0.128906,-0.183105,-0.061035,-0.061035,21.27,0
547097857,21915.943375,1777900747.542828,-1126,-1702,268,-3,-1,-2,-0.549805,-0.831055,0.130859,-0.183105,-0.061035,-0.122070,21.38,1
547098870,21915.951427,1777900747.543842,-1127,-1701,268,-2,-1,-2,-0.550293,-0.830566,0.130859,-0.122070,-0.061035,-0.122070,21.35,0
547099881,21915.951436,1777900747.544853,-1123,-1698,266,-3,-1,-1,-0.548340,-0.829102,0.129883,-0.183105,-0.061035,-0.061035,21.23,0
547100893,21915.951442,1777900747.545865,-1123,-1698,263,-3,-2,0,-0.548340,-0.829102,0.128418,-0.183105,-0.122070,0.000000,21.30,0
547101906,21915.951449,1777900747.546878,-1124,-1699,262,-4,-1,-1,-0.548828,-0.829590,0.127930,-0.244141,-0.061035,-0.061035,21.35,0
547102918,21915.951455,1777900747.547890,-1121,-1700,264,-3,-1,-2,-0.547363,-0.830078,0.128906,-0.183105,-0.061035,-0.122070,21.26,0
547103932,21915.951462,1777900747.548904,-1124,-1699,266,-3,-1,-2,-0.548828,-0.829590,0.129883,-0.183105,-0.061035,-0.122070,21.42,0
547104944,21915.951468,1777900747.549916,-1124,-1696,266,-3,-1,-2,-0.548828,-0.828125,0.129883,-0.183105,-0.061035,-0.122070,21.33,0
547105956,21915.951475,1777900747.550928,-1121,-1698,266,-3,0,-1,-0.547363,-0.829102,0.129883,-0.183105,0.000000,-0.061035,21.12,0
547106966,21915.959528,1777900747.551938,-1124,-1700,263,-3,0,-1,-0.548828,-0.830078,0.128418,-0.183105,0.000000,-0.061035,21.12,0
547107981,21915.959540,1777900747.552953,-1126,-1697,263,-4,-1,0,-0.549805,-0.828613,0.128418,-0.244141,-0.061035,0.000000,21.38,0
547108992,21915.959547,1777900747.553966,-1123,-1698,265,-5,-1,1,-0.548340,-0.829102,0.129395,-0.305176,-0.061035,0.061035,21.32,1
547110005,21915.959555,1777900747.554979,-1121,-1701,266,-4,-1,0,-0.547363,-0.830566,0.129883,-0.244141,-0.061035,0.000000,21.32,0
547111018,21915.959562,1777900747.555992,-1122,-1698,267,-4,-2,0,-0.547852,-0.829102,0.130371,-0.244141,-0.122070,0.000000,21.32,0
547112028,21915.959568,1777900747.557002,-1124,-1699,265,-3,-2,0,-0.548828,-0.829590,0.129395,-0.183105,-0.122070,0.000000,21.29,0
547113040,21915.959575,1777900747.558014,-1124,-1702,265,-3,-1,-1,-0.548828,-0.831055,0.129395,-0.183105,-0.061035,-0.061035,21.14,0
547114053,21915.959581,1777900747.559027,-1124,-1699,266,-3,-1,-1,-0.548828,-0.829590,0.129883,-0.183105,-0.061035,-0.061035,21.12,0
547115066,21915.967635,1777900747.560040,-1123,-1697,266,-2,-1,-1,-0.548340,-0.828613,0.129883,-0.122070,-0.061035,-0.061035,21.15,0
547116078,21915.967682,1777900747.561052,-1122,-1700,269,-2,-1,-1,-0.547852,-0.830078,0.131348,-0.122070,-0.061035,-0.061035,21.26,0
547117101,21915.967689,1777900747.562075,-1125,-1700,267,-3,-1,-1,-0.549316,-0.830078,0.130371,-0.183105,-0.061035,-0.061035,21.30,0
547118103,21915.967696,1777900747.563076,-1126,-1697,263,-3,-1,-1,-0.549805,-0.828613,0.128418,-0.183105,-0.061035,-0.061035,21.29,0
547119115,21915.967702,1777900747.564089,-1122,-1697,264,-2,-1,-1,-0.547852,-0.828613,0.128906,-0.122070,-0.061035,-0.061035,21.26,0
547120126,21915.967709,1777900747.565099,-1119,-1698,263,-3,0,-1,-0.546387,-0.829102,0.128418,-0.183105,0.000000,-0.061035,21.23,1
547121138,21915.967717,1777900747.566112,-1123,-1698,264,-3,0,0,-0.548340,-0.829102,0.128906,-0.183105,0.000000,0.000000,21.26,0
547122151,21915.967723,1777900747.567125,-1126,-1699,265,-2,-1,-1,-0.549805,-0.829590,0.129395,-0.122070,-0.061035,-0.061035,21.33,0
547123164,21915.975725,1777900747.568139,-1125,-1702,264,-3,-1,-2,-0.549316,-0.831055,0.128906,-0.183105,-0.061035,-0.122070,21.29,0
547124177,21915.975739,1777900747.569152,-1125,-1700,263,-3,0,-1,-0.549316,-0.830078,0.128418,-0.183105,0.000000,-0.061035,21.07,0
547125187,21915.975746,1777900747.570162,-1127,-1696,264,-2,0,0,-0.550293,-0.828125,0.128906,-0.122070,0.000000,0.000000,21.35,0
547126200,21915.975753,1777900747.571175,-1126,-1696,266,-2,-1,0,-0.549805,-0.828125,0.129883,-0.122070,-0.061035,0.000000,21.35,0
547127214,21915.975759,1777900747.572189,-1123,-1699,266,-2,-2,-1,-0.548340,-0.829590,0.129883,-0.122070,-0.122070,-0.061035,21.21,0
547128225,21915.975766,1777900747.573200,-1122,-1702,262,-3,-2,-1,-0.547852,-0.831055,0.127930,-0.183105,-0.122070,-0.061035,21.18,0
547129238,21915.975772,1777900747.574213,-1125,-1700,260,-2,-2,-1,-0.549316,-0.830078,0.126953,-0.122070,-0.122070,-0.061035,21.26,0
547130250,21915.975779,1777900747.575225,-1125,-1698,262,-2,0,0,-0.549316,-0.829102,0.127930,-0.122070,0.000000,0.000000,21.32,0
547131260,21915.983850,1777900747.576236,-1124,-1698,262,-2,0,-1,-0.548828,-0.829102,0.127930,-0.122070,0.000000,-0.061035,21.26,1
547132275,21915.983860,1777900747.577251,-1123,-1697,262,-2,0,-1,-0.548340,-0.828613,0.127930,-0.122070,0.000000,-0.061035,21.12,0
547133285,21915.983867,1777900747.578261,-1124,-1698,266,-3,0,-1,-0.548828,-0.829102,0.129883,-0.183105,0.000000,-0.061035,21.23,0
547134297,21915.983874,1777900747.579273,-1124,-1702,268,-3,-1,0,-0.548828,-0.831055,0.130859,-0.183105,-0.061035,0.000000,21.24,0
547135310,21915.983880,1777900747.580286,-1124,-1700,264,-3,-1,0,-0.548828,-0.830078,0.128906,-0.183105,-0.061035,0.000000,21.18,0
547136324,21915.983887,1777900747.581300,-1125,-1698,263,-3,-1,0,-0.549316,-0.829102,0.128418,-0.183105,-0.061035,0.000000,21.33,0
547137335,21915.983893,1777900747.582311,-1123,-1700,266,-3,0,0,-0.548340,-0.830078,0.129883,-0.183105,0.000000,0.000000,21.26,0
547138346,21915.983900,1777900747.583322,-1124,-1700,264,-3,-1,0,-0.548828,-0.830078,0.128906,-0.183105,-0.061035,0.000000,21.07,0
547139360,21915.991940,1777900747.584336,-1123,-1699,259,-3,-1,-1,-0.548340,-0.829590,0.126465,-0.183105,-0.061035,-0.061035,21.24,0
547140371,21915.991960,1777900747.585347,-1121,-1700,264,-3,-1,-1,-0.547363,-0.830078,0.128906,-0.183105,-0.061035,-0.061035,21.38,0
547141383,21915.991970,1777900747.586359,-1122,-1699,268,-2,-1,0,-0.547852,-0.829590,0.130859,-0.122070,-0.061035,0.000000,21.36,0
547142398,21915.991979,1777900747.587374,-1124,-1701,265,-2,-1,0,-0.548828,-0.830566,0.129395,-0.122070,-0.061035,0.000000,21.32,1
547143410,21915.991990,1777900747.588387,-1123,-1700,265,-1,-2,-1,-0.548340,-0.830078,0.129395,-0.061035,-0.122070,-0.061035,21.35,0
547144420,21915.991998,1777900747.589396,-1124,-1700,265,-2,-2,-1,-0.548828,-0.830078,0.129395,-0.122070,-0.122070,-0.061035,21.39,0
547145434,21915.992013,1777900747.590410,-1124,-1701,263,-3,-1,0,-0.548828,-0.830566,0.128418,-0.183105,-0.061035,0.000000,21.27,0
547146445,21915.992022,1777900747.591421,-1122,-1698,260,-3,-1,-1,-0.547852,-0.829102,0.126953,-0.183105,-0.061035,-0.061035,21.38,0
547147458,21916.000025,1777900747.592434,-1121,-1695,262,-3,-1,-1,-0.547363,-0.827637,0.127930,-0.183105,-0.061035,-0.061035,21.26,0
547148469,21916.000033,1777900747.593445,-1123,-1697,264,-3,-1,0,-0.548340,-0.828613,0.128906,-0.183105,-0.061035,0.000000,21.14,0
547149482,21916.000040,1777900747.594458,-1120,-1701,261,-4,-2,0,-0.546875,-0.830566,0.127441,-0.244141,-0.122070,0.000000,21.30,0
547150495,21916.000047,1777900747.595471,-1120,-1703,260,-3,-2,-1,-0.546875,-0.831543,0.126953,-0.183105,-0.122070,-0.061035,21.17,0
547151507,21916.000053,1777900747.596483,-1125,-1701,263,-3,0,-1,-0.549316,-0.830566,0.128418,-0.183105,0.000000,-0.061035,21.18,0
547152520,21916.000060,1777900747.597496,-1128,-1699,263,-3,-1,0,-0.550781,-0.829590,0.128418,-0.183105,-0.061035,0.000000,21.36,0
547153530,21916.000067,1777900747.598506,-1125,-1700,263,-3,-1,0,-0.549316,-0.830078,0.128418,-0.183105,-0.061035,0.000000,21.24,1
547154542,21916.000074,1777900747.599518,-1122,-1699,265,-3,-1,0,-0.547852,-0.829590,0.129395,-0.183105,-0.061035,0.000000,21.26,0
547155557,21916.008127,1777900747.600534,-1121,-1701,264,-4,-1,0,-0.547363,-0.830566,0.128906,-0.244141,-0.061035,0.000000,21.35,0
547156569,21916.008145,1777900747.601546,-1123,-1703,263,-3,-1,-1,-0.548340,-0.831543,0.128418,-0.183105,-0.061035,-0.061035,21.44,0
547157580,21916.008152,1777900747.602557,-1123,-1701,264,-2,-1,-1,-0.548340,-0.830566,0.128906,-0.122070,-0.061035,-0.061035,21.33,0
547158593,21916.008159,1777900747.603570,-1123,-1699,263,-3,-2,0,-0.548340,-0.829590,0.128418,-0.183105,-0.122070,0.000000,21.33,0
547159605,21916.008165,1777900747.604582,-1124,-1698,260,-4,-3,-1,-0.548828,-0.829102,0.126953,-0.244141,-0.183105,-0.061035,21.35,0
547160618,21916.008172,1777900747.605595,-1125,-1699,258,-3,-2,-2,-0.549316,-0.829590,0.125977,-0.183105,-0.122070,-0.122070,21.24,0
547161630,21916.008179,1777900747.606607,-1126,-1702,259,-1,-1,-1,-0.549805,-0.831055,0.126465,-0.061035,-0.061035,-0.061035,21.32,0
547162641,21916.008185,1777900747.607618,-1124,-1701,260,-1,-1,0,-0.548828,-0.830566,0.126953,-0.061035,-0.061035,0.000000,21.26,0
547163653,21916.016205,1777900747.608630,-1122,-1695,261,-1,-2,0,-0.547852,-0.827637,0.127441,-0.061035,-0.122070,0.000000,21.17,0
547164667,21916.016217,1777900747.609644,-1124,-1695,265,-1,-2,0,-0.548828,-0.827637,0.129395,-0.061035,-0.122070,0.000000,21.23,1
547165678,21916.016229,1777900747.610656,-1124,-1699,269,-3,-1,0,-0.548828,-0.829590,0.131348,-0.183105,-0.061035,0.000000,21.38,0
547166689,21916.016239,1777900747.611666,-1124,-1700,266,-3,-1,-1,-0.548828,-0.830078,0.129883,-0.183105,-0.061035,-0.061035,21.36,0
547167703,21916.016249,1777900747.612680,-1127,-1703,264,-2,-1,0,-0.550293,-0.831543,0.128906,-0.122070,-0.061035,0.000000,21.14,0
547168714,21916.016260,1777900747.613691,-1128,-1701,263,-3,-1,0,-0.550781,-0.830566,0.128418,-0.183105,-0.061035,0.000000,21.12,0
547169727,21916.016270,1777900747.614704,-1125,-1697,262,-4,-1,0,-0.549316,-0.828613,0.127930,-0.244141,-0.061035,0.000000,21.23,0
547170741,21916.016279,1777900747.615718,-1121,-1699,263,-3,-1,0,-0.547363,-0.829590,0.128418,-0.183105,-0.061035,0.000000,21.36,0
547171752,21916.024333,1777900747.616729,-1120,-1700,261,-3,0,0,-0.546875,-0.830078,0.127441,-0.183105,0.000000,0.000000,21.32,0
547172763,21916.024346,1777900747.617740,-1124,-1702,263,-3,-1,-1,-0.548828,-0.831055,0.128418,-0.183105,-0.061035,-0.061035,21.17,0
547173777,21916.024353,1777900747.618754,-1126,-1701,268,-3,-2,0,-0.549805,-0.830566,0.130859,-0.183105,-0.122070,0.000000,21.30,0
547174789,21916.024360,1777900747.619766,-1125,-1698,267,-3,-2,0,-0.549316,-0.829102,0.130371,-0.183105,-0.122070,0.000000,21.24,0
547175800,21916.024367,1777900747.620777,-1125,-1698,263,-3,-2,0,-0.549316,-0.829102,0.128418,-0.183105,-0.122070,0.000000,21.29,1
547176812,21916.024376,1777900747.621789,-1124,-1699,262,-2,-1,0,-0.548828,-0.829590,0.127930,-0.122070,-0.061035,0.000000,21.38,0
547177824,21916.024383,1777900747.622801,-1124,-1699,260,-2,-1,0,-0.548828,-0.829590,0.126953,-0.122070,-0.061035,0.000000,21.41,0
547178838,21916.024429,1777900747.623815,-1123,-1700,260,-2,-1,1,-0.548340,-0.830078,0.126953,-0.122070,-0.061035,0.061035,21.38,0
547179849,21916.032414,1777900747.624826,-1120,-1700,261,-2,-1,0,-0.546875,-0.830078,0.127441,-0.122070,-0.061035,0.000000,21.38,0
547180862,21916.032424,1777900747.625839,-1121,-1698,262,-2,-1,-1,-0.547363,-0.829102,0.127930,-0.122070,-0.061035,-0.061035,21.35,0
547181875,21916.032431,1777900747.626853,-1125,-1698,265,-3,-2,-1,-0.549316,-0.829102,0.129395,-0.183105,-0.122070,-0.061035,21.39,0
547182888,21916.032438,1777900747.627865,-1125,-1700,265,-3,-2,0,-0.549316,-0.830078,0.129395,-0.183105,-0.122070,0.000000,21.38,0
547183898,21916.032444,1777900747.628875,-1126,-1700,264,-3,-2,-1,-0.549805,-0.830078,0.128906,-0.183105,-0.122070,-0.061035,21.18,0
547184912,21916.032451,1777900747.629889,-1126,-1700,265,-2,-1,0,-0.549805,-0.830078,0.129395,-0.122070,-0.061035,0.000000,21.17,0
547185925,21916.032458,1777900747.630902,-1124,-1701,264,-3,-1,1,-0.548828,-0.830566,0.128906,-0.183105,-0.061035,0.061035,21.23,0
547186936,21916.032464,1777900747.631913,-1124,-1699,264,-2,-1,0,-0.548828,-0.829590,0.128906,-0.122070,-0.061035,0.000000,21.29,1
547187948,21916.040528,1777900747.632926,-1124,-1699,265,-1,-1,0,-0.548828,-0.829590,0.129395,-0.061035,-0.061035,0.000000,21.24,0
547188961,21916.040537,1777900747.633938,-1125,-1703,264,-2,-1,0,-0.549316,-0.831543,0.128906,-0.122070,-0.061035,0.000000,21.17,0
547189971,21916.040544,1777900747.634948,-1127,-1704,265,-4,-2,0,-0.550293,-0.832031,0.129395,-0.244141,-0.122070,0.000000,21.15,0
547190985,21916.040552,1777900747.635962,-1123,-1702,266,-3,-2,-1,-0.548340,-0.831055,0.129883,-0.183105,-0.122070,-0.061035,21.20,0
547191996,21916.040558,1777900747.636973,-1123,-1699,265,-2,-1,0,-0.548340,-0.829590,0.129395,-0.122070,-0.061035,0.000000,21.29,0
547193010,21916.040565,1777900747.637987,-1123,-1698,265,-3,-1,0,-0.548340,-0.829102,0.129395,-0.183105,-0.061035,0.000000,21.20,0
547194022,21916.040571,1777900747.638999,-1120,-1700,263,-4,-1,0,-0.546875,-0.830078,0.128418,-0.244141,-0.061035,0.000000,21.38,0
547195035,21916.040578,1777900747.640012,-1122,-1702,263,-3,-1,-1,-0.547852,-0.831055,0.128418,-0.183105,-0.061035,-0.061035,21.17,0
547196047,21916.048608,1777900747.641024,-1125,-1702,266,-3,-1,-1,-0.549316,-0.831055,0.129883,-0.183105,-0.061035,-0.061035,21.21,0
547197059,21916.048618,1777900747.642036,-1125,-1700,265,-3,-2,0,-0.549316,-0.830078,0.129395,-0.183105,-0.122070,0.000000,21.32,0
547198071,21916.048624,1777900747.643048,-1123,-1699,265,-2,-2,-1,-0.548340,-0.829590,0.129395,-0.122070,-0.122070,-0.061035,21.14,1
547199082,21916.048636,1777900747.644059,-1122,-1696,266,-2,0,-1,-0.547852,-0.828125,0.129883,-0.122070,0.000000,-0.061035,21.38,0
547200098,21916.048642,1777900747.645075,-1122,-1698,265,-2,0,-1,-0.547852,-0.829102,0.129395,-0.122070,0.000000,-0.061035,21.32,0
547201108,21916.048649,1777900747.646085,-1121,-1700,263,-3,-2,-1,-0.547363,-0.830078,0.128418,-0.183105,-0.122070,-0.061035,21.24,0
547202121,21916.048656,1777900747.647098,-1121,-1699,264,-3,-3,-1,-0.547363,-0.829590,0.128906,-0.183105,-0.183105,-0.061035,21.11,0
547203133,21916.048663,1777900747.648110,-1124,-1697,265,-3,-2,-1,-0.548828,-0.828613,0.129395,-0.183105,-0.122070,-0.061035,21.15,0
547204143,21916.056738,1777900747.649120,-1127,-1699,262,-2,-1,-1,-0.550293,-0.829590,0.127930,-0.122070,-0.061035,-0.061035,21.27,0
547205157,21916.056751,1777900747.650134,-1126,-1700,260,-3,0,-1,-0.549805,-0.830078,0.126953,-0.183105,0.000000,-0.061035,21.29,0
547206168,21916.056758,1777900747.651145,-1126,-1700,263,-3,-1,-1,-0.549805,-0.830078,0.128418,-0.183105,-0.061035,-0.061035,21.32,0
547207181,21916.056765,1777900747.652158,-1126,-1701,266,-2,-1,-1,-0.549805,-0.830566,0.129883,-0.122070,-0.061035,-0.061035,21.07,0
547208192,21916.056771,1777900747.653169,-1124,-1703,266,-3,-1,-1,-0.548828,-0.831543,0.129883,-0.183105,-0.061035,-0.061035,21.33,0
547209204,21916.056778,1777900747.654181,-1125,-1703,262,-2,-2,0,-0.549316,-0.831543,0.127930,-0.122070,-0.122070,0.000000,21.33,1
547210217,21916.056786,1777900747.655194,-1125,-1698,260,-2,-2,0,-0.549316,-0.829102,0.126953,-0.122070,-0.122070,0.000000,21.11,0
547211230,21916.056792,1777900747.656207,-1122,-1699,263,-2,-2,-1,-0.547852,-0.829590,0.128418,-0.122070,-0.122070,-0.061035,21.32,0
547212243,21916.064839,1777900747.657220,-1122,-1700,264,-3,-2,-2,-0.547852,-0.830078,0.128906,-0.183105,-0.122070,-0.122070,21.21,0
547213256,21916.064860,1777900747.658233,-1124,-1698,264,-3,-2,-1,-0.548828,-0.829102,0.128906,-0.183105,-0.122070,-0.061035,21.11,0
547214268,21916.064869,1777900747.659245,-1124,-1701,265,-3,-1,-1,-0.548828,-0.830566,0.129395,-0.183105,-0.061035,-0.061035,21.30,0
547215278,21916.064876,1777900747.660255,-1121,-1700,264,-3,-1,-1,-0.547363,-0.830078,0.128906,-0.183105,-0.061035,-0.061035,21.17,0
547216290,21916.064883,1777900747.661267,-1123,-1697,261,-3,-1,-1,-0.548340,-0.828613,0.127441,-0.183105,-0.061035,-0.061035,21.17,0
547217304,21916.064889,1777900747.662281,-1128,-1698,264,-3,-1,-1,-0.550781,-0.829102,0.128906,-0.183105,-0.061035,-0.061035,21.06,0
547218316,21916.064896,1777900747.663293,-1125,-1700,266,-3,0,-1,-0.549316,-0.830078,0.129883,-0.183105,0.000000,-0.061035,21.14,0
547219329,21916.064903,1777900747.664306,-1120,-1699,262,-2,0,0,-0.546875,-0.829590,0.127930,-0.122070,0.000000,0.000000,21.14,0
547220341,21916.072922,1777900747.665318,-1122,-1697,260,-1,0,0,-0.547852,-0.828613,0.126953,-0.061035,0.000000,0.000000,21.24,1
547221353,21916.072938,1777900747.666330,-1124,-1699,262,-2,-1,-1,-0.548828,-0.829590,0.127930,-0.122070,-0.061035,-0.061035,21.14,0
547222365,21916.072946,1777900747.667342,-1122,-1702,265,-3,-1,-1,-0.547852,-0.831055,0.129395,-0.183105,-0.061035,-0.061035,21.11,0
547223377,21916.072952,1777900747.668354,-1121,-1700,263,-3,-2,0,-0.547363,-0.830078,0.128418,-0.183105,-0.122070,0.000000,21.23,0
547224390,21916.072959,1777900747.669367,-1121,-1699,262,-3,-2,-1,-0.547363,-0.829590,0.127930,-0.183105,-0.122070,-0.061035,21.33,0
547225402,21916.072966,1777900747.670379,-1123,-1700,261,-3,-1,-1,-0.548340,-0.830078,0.127441,-0.183105,-0.061035,-0.061035,21.30,0
547226412,21916.072972,1777900747.671389,-1124,-1699,259,-3,-1,-1,-0.548828,-0.829590,0.126465,-0.183105,-0.061035,-0.061035,21.26,0
547227425,21916.072979,1777900747.672402,-1125,-1697,263,-3,-1,0,-0.549316,-0.828613,0.128418,-0.183105,-0.061035,0.000000,21.24,0
547228439,21916.081020,1777900747.673416,-1124,-1697,264,-3,-2,0,-0.548828,-0.828613,0.128906,-0.183105,-0.122070,0.000000,21.26,0
547229449,21916.081044,1777900747.674426,-1123,-1700,263,-2,-1,0,-0.548340,-0.830078,0.128418,-0.122070,-0.061035,0.000000,21.26,0
547230464,21916.081052,1777900747.675441,-1125,-1703,264,-3,0,0,-0.549316,-0.831543,0.128906,-0.183105,0.000000,0.000000,21.18,0
547231474,21916.081059,1777900747.676450,-1125,-1702,264,-3,-1,0,-0.549316,-0.831055,0.128906,-0.183105,-0.061035,0.000000,21.29,1
547232487,21916.081067,1777900747.677463,-1124,-1704,265,-3,-1,0,-0.548828,-0.832031,0.129395,-0.183105,-0.061035,0.000000,21.20,0
547233498,21916.081073,1777900747.678474,-1127,-1704,266,-2,-1,-1,-0.550293,-0.832031,0.129883,-0.122070,-0.061035,-0.061035,21.23,0
547234512,21916.081080,1777900747.679488,-1128,-1701,265,-3,-1,-1,-0.550781,-0.830566,0.129395,-0.183105,-0.061035,-0.061035,21.21,0
547235524,21916.081087,1777900747.680500,-1126,-1700,267,-3,-1,-1,-0.549805,-0.830078,0.130371,-0.183105,-0.061035,-0.061035,21.38,0
547236538,21916.089105,1777900747.681514,-1126,-1702,268,-3,-1,-1,-0.549805,-0.831055,0.130859,-0.183105,-0.061035,-0.061035,21.26,0
547237549,21916.089121,1777900747.682525,-1124,-1703,265,-2,-1,-1,-0.548828,-0.831543,0.129395,-0.122070,-0.061035,-0.061035,21.18,0
547238560,21916.089129,1777900747.683536,-1123,-1701,262,-2,-2,-1,-0.548340,-0.830566,0.127930,-0.122070,-0.122070,-0.061035,21.32,0
547239574,21916.089136,1777900747.684550,-1122,-1698,264,-3,-2,-1,-0.547852,-0.829102,0.128906,-0.183105,-0.122070,-0.061035,21.26,0
547240586,21916.089143,1777900747.685562,-1120,-1696,263,-3,-1,-1,-0.546875,-0.828125,0.128418,-0.183105,-0.061035,-0.061035,21.17,0
547241596,21916.089183,1777900747.686572,-1120,-1698,261,-2,-1,-1,-0.546875,-0.829102,0.127441,-0.122070,-0.061035,-0.061035,21.07,0
547242610,21916.089190,1777900747.687586,-1121,-1698,261,-2,-2,0,-0.547363,-0.829102,0.127441,-0.122070,-0.122070,0.000000,21.26,1
547243621,21916.089198,1777900747.688597,-1121,-1697,260,-3,-1,0,-0.547363,-0.828613,0.126953,-0.183105,-0.061035,0.000000,21.27,0
547244636,21916.097191,1777900747.689611,-1120,-1698,263,-3,-1,0,-0.546875,-0.829102,0.128418,-0.183105,-0.061035,0.000000,21.15,0
547245648,21916.097207,1777900747.690624,-1122,-1700,265,-4,-1,-1,-0.547852,-0.830078,0.129395,-0.244141,-0.061035,-0.061035,21.32,0
547246660,21916.097221,1777900747.691635,-1126,-1699,266,-3,-2,-1,-0.549805,-0.829590,0.129883,-0.183105,-0.122070,-0.061035,21.36,0
547247673,21916.097237,1777900747.692648,-1126,-1697,266,-2,-2,-1,-0.549805,-0.828613,0.129883,-0.122070,-0.122070,-0.061035,21.36,0
547248684,21916.097244,1777900747.693659,-1122,-1698,264,-2,-1,0,-0.547852,-0.829102,0.128906,-0.122070,-0.061035,0.000000,21.15,0
547249696,21916.097251,1777900747.694671,-1120,-1700,262,-4,-1,0,-0.546875,-0.830078,0.127930,-0.244141,-0.061035,0.000000,21.26,0
547250708,21916.097258,1777900747.695683,-1122,-1700,263,-4,-2,-1,-0.547852,-0.830078,0.128418,-0.244141,-0.122070,-0.061035,21.42,0
547251719,21916.097264,1777900747.696694,-1123,-1699,266,-3,-2,-1,-0.548340,-0.829590,0.129883,-0.183105,-0.122070,-0.061035,21.17,0
547252733,21916.105316,1777900747.697708,-1123,-1698,262,-3,-2,-1,-0.548340,-0.829102,0.127930,-0.183105,-0.122070,-0.061035,21.29,0
547253744,21916.105331,1777900747.698719,-1124,-1699,262,-3,-1,-1,-0.548828,-0.829590,0.127930,-0.183105,-0.061035,-0.061035,21.20,1
547254757,21916.105339,1777900747.699732,-1123,-1700,266,-2,-1,0,-0.548340,-0.830078,0.129883,-0.122070,-0.061035,0.000000,21.23,0
547255768,21916.105346,1777900747.700743,-1122,-1700,266,-2,-2,-1,-0.547852,-0.830078,0.129883,-0.122070,-0.122070,-0.061035,21.32,0
547256782,21916.105353,1777900747.701757,-1122,-1700,263,-3,-1,-1,-0.547852,-0.830078,0.128418,-0.183105,-0.061035,-0.061035,21.23,0
547257793,21916.105360,1777900747.702768,-1123,-1701,263,-3,0,0,-0.548340,-0.830566,0.128418,-0.183105,0.000000,0.000000,21.35,0
547258807,21916.105367,1777900747.703782,-1124,-1700,264,-3,0,0,-0.548828,-0.830078,0.128906,-0.183105,0.000000,0.000000,21.24,0
547259819,21916.105373,1777900747.704794,-1125,-1698,264,-3,-1,0,-0.549316,-0.829102,0.128906,-0.183105,-0.061035,0.000000,21.12,0
547260831,21916.113403,1777900747.705806,-1124,-1700,265,-2,-1,0,-0.548828,-0.830078,0.129395,-0.122070,-0.061035,0.000000,21.15,0
547261842,21916.113421,1777900747.706817,-1124,-1701,267,-2,0,0,-0.548828,-0.830566,0.130371,-0.122070,0.000000,0.000000,21.11,0
547262854,21916.113428,1777900747.707829,-1125,-1700,267,-2,-1,0,-0.549316,-0.830078,0.130371,-0.122070,-0.061035,0.000000,21.38,0
547263868,21916.113435,1777900747.708843,-1125,-1698,264,-2,-2,-1,-0.549316,-0.829102,0.128906,-0.122070,-0.122070,-0.061035,21.27,0
547264879,21916.113442,1777900747.709854,-1125,-1699,265,-3,-1,-1,-0.549316,-0.829590,0.129395,-0.183105,-0.061035,-0.061035,21.30,1
547265891,21916.113451,1777900747.710865,-1125,-1701,268,-2,-1,0,-0.549316,-0.830566,0.130859,-0.122070,-0.061035,0.000000,21.38,0
547266905,21916.113457,1777900747.711879,-1124,-1701,267,-2,-1,0,-0.548828,-0.830566,0.130371,-0.122070,-0.061035,0.000000,21.29,0
547267916,21916.113464,1777900747.712890,-1125,-1702,264,-2,-1,-1,-0.549316,-0.831055,0.128906,-0.122070,-0.061035,-0.061035,21.20,0
547268928,21916.121494,1777900747.713902,-1124,-1700,262,-3,-1,0,-0.548828,-0.830078,0.127930,-0.183105,-0.061035,0.000000,21.29,0
547269942,21916.121506,1777900747.714916,-1122,-1695,265,-4,-1,0,-0.547852,-0.827637,0.129395,-0.244141,-0.061035,0.000000,21.38,0
547270954,21916.121513,1777900747.715928,-1121,-1697,269,-3,-2,0,-0.547363,-0.828613,0.131348,-0.183105,-0.122070,0.000000,21.32,0
547271965,21916.121520,1777900747.716939,-1121,-1699,268,-3,-2,0,-0.547363,-0.829590,0.130859,-0.183105,-0.122070,0.000000,21.36,0
547272979,21916.121527,1777900747.717953,-1125,-1702,264,-3,-2,1,-0.549316,-0.831055,0.128906,-0.183105,-0.122070,0.061035,21.27,0
547273991,21916.121533,1777900747.718965,-1125,-1702,261,-3,-2,0,-0.549316,-0.831055,0.127441,-0.183105,-0.122070,0.000000,21.26,0
547275002,21916.121540,1777900747.719976,-1123,-1696,262,-3,-2,-1,-0.548340,-0.828125,0.127930,-0.183105,-0.122070,-0.061035,21.29,0
547276016,21916.121547,1777900747.720990,-1123,-1695,266,-4,-1,0,-0.548340,-0.827637,0.129883,-0.244141,-0.061035,0.000000,21.17,1
547277027,21916.129570,1777900747.722000,-1122,-1698,267,-3,-1,0,-0.547852,-0.829102,0.130371,-0.183105,-0.061035,0.000000,21.26,0
547278040,21916.129582,1777900747.723013,-1120,-1699,264,-3,-1,0,-0.546875,-0.829590,0.128906,-0.183105,-0.061035,0.000000,21.35,0
547279050,21916.129589,1777900747.724023,-1120,-1699,259,-4,0,-1,-0.546875,-0.829590,0.126465,-0.244141,0.000000,-0.061035,21.15,0
547280064,21916.129595,1777900747.725037,-1122,-1697,262,-4,-1,-1,-0.547852,-0.828613,0.127930,-0.244141,-0.061035,-0.061035,21.35,0
547281076,21916.129602,1777900747.726049,-1125,-1697,267,-4,-1,-1,-0.549316,-0.828613,0.130371,-0.244141,-0.061035,-0.061035,21.21,0
547282097,21916.129609,1777900747.727070,-1126,-1700,267,-3,-1,0,-0.549805,-0.830078,0.130371,-0.183105,-0.061035,0.000000,21.23,0
547283101,21916.129615,1777900747.728074,-1126,-1700,265,-4,-1,0,-0.549805,-0.830078,0.129395,-0.244141,-0.061035,0.000000,21.23,0
547284113,21916.129622,1777900747.729086,-1126,-1700,264,-2,-2,0,-0.549805,-0.830078,0.128906,-0.122070,-0.122070,0.000000,21.41,0
547285126,21916.137692,1777900747.730099,-1123,-1700,264,-2,-2,0,-0.548340,-0.830078,0.128906,-0.122070,-0.122070,0.000000,21.26,0
547286138,21916.137703,1777900747.731111,-1120,-1700,265,-3,-1,0,-0.546875,-0.830078,0.129395,-0.183105,-0.061035,0.000000,21.30,0
547287148,21916.137710,1777900747.732120,-1121,-1700,269,-3,-1,1,-0.547363,-0.830078,0.131348,-0.183105,-0.061035,0.061035,21.30,1
547288162,21916.137718,1777900747.733134,-1123,-1701,268,-3,-1,0,-0.548340,-0.830566,0.130859,-0.183105,-0.061035,0.000000,21.35,0
547289175,21916.137725,1777900747.734147,-1125,-1700,264,-3,-1,-1,-0.549316,-0.830078,0.128906,-0.183105,-0.061035,-0.061035,21.26,0
547290186,21916.137732,1777900747.735158,-1127,-1699,265,-3,-1,-1,-0.550293,-0.829590,0.129395,-0.183105,-0.061035,-0.061035,21.35,0
547291197,21916.137738,1777900747.736169,-1127,-1699,269,-4,-1,0,-0.550293,-0.829590,0.131348,-0.244141,-0.061035,0.000000,21.38,0
547292210,21916.137745,1777900747.737182,-1125,-1700,270,-4,-2,0,-0.549316,-0.830078,0.131836,-0.244141,-0.122070,0.000000,21.32,0
547293223,21916.145770,1777900747.738195,-1125,-1700,268,-4,-2,-1,-0.549316,-0.830078,0.130859,-0.244141,-0.122070,-0.061035,21.36,0
547294234,21916.145784,1777900747.739206,-1124,-1699,266,-3,-1,-1,-0.548828,-0.829590,0.129883,-0.183105,-0.061035,-0.061035,21.17,0
547295246,21916.145791,1777900747.740218,-1123,-1698,263,-3,0,0,-0.548340,-0.829102,0.128418,-0.183105,0.000000,0.000000,21.15,0
547296261,21916.145798,1777900747.741233,-1122,-1699,262,-3,-1,1,-0.547852,-0.829590,0.127930,-0.183105,-0.061035,0.061035,21.17,0
547297273,21916.145805,1777900747.742245,-1124,-1699,268,-3,-1,0,-0.548828,-0.829590,0.130859,-0.183105,-0.061035,0.000000,21.38,0
547298284,21916.145812,1777900747.743256,-1125,-1699,270,-3,0,0,-0.549316,-0.829590,0.131836,-0.183105,0.000000,0.000000,21.17,1
547299295,21916.145820,1777900747.744267,-1123,-1700,267,-4,-1,0,-0.548340,-0.830078,0.130371,-0.244141,-0.061035,0.000000,21.30,0
547300309,21916.145827,1777900747.745281,-1124,-1699,265,-3,-1,0,-0.548828,-0.829590,0.129395,-0.183105,-0.061035,0.000000,21.33,0
547301322,21916.153896,1777900747.746293,-1126,-1698,263,-2,-1,0,-0.549805,-0.829102,0.128418,-0.122070,-0.061035,0.000000,21.32,0
547302333,21916.153914,1777900747.747304,-1124,-1696,264,-2,-1,-1,-0.548828,-0.828125,0.128906,-0.122070,-0.061035,-0.061035,21.18,0
547303345,21916.153923,1777900747.748316,-1122,-1698,265,-2,-1,-1,-0.547852,-0.829102,0.129395,-0.122070,-0.061035,-0.061035,21.17,0
547304358,21916.153968,1777900747.749329,-1119,-1699,264,-2,-1,-1,-0.546387,-0.829590,0.128906,-0.122070,-0.061035,-0.061035,21.36,0
547305369,21916.153977,1777900747.750340,-1121,-1697,265,-2,-1,0,-0.547363,-0.828613,0.129395,-0.122070,-0.061035,0.000000,21.41,0
547306383,21916.153986,1777900747.751354,-1125,-1699,266,-3,-2,0,-0.549316,-0.829590,0.129883,-0.183105,-0.122070,0.000000,21.35,0
547307396,21916.153994,1777900747.752367,-1126,-1702,264,-2,-2,0,-0.549805,-0.831055,0.128906,-0.122070,-0.122070,0.000000,21.21,0
547308407,21916.154010,1777900747.753378,-1126,-1702,263,-1,-1,0,-0.549805,-0.831055,0.128418,-0.061035,-0.061035,0.000000,21.23,0
547309419,21916.162024,1777900747.754389,-1125,-1698,266,-3,-1,1,-0.549316,-0.829102,0.129883,-0.183105,-0.061035,0.061035,21.29,1
547310430,21916.162044,1777900747.755399,-1123,-1696,266,-4,-1,1,-0.548340,-0.828125,0.129883,-0.244141,-0.061035,0.061035,21.17,0
547311443,21916.162052,1777900747.756413,-1125,-1699,265,-2,-1,-1,-0.549316,-0.829590,0.129395,-0.122070,-0.061035,-0.061035,21.38,0
547312456,21916.162060,1777900747.757426,-1128,-1699,264,-1,0,-2,-0.550781,-0.829590,0.128906,-0.061035,0.000000,-0.122070,21.38,0
547313467,21916.162067,1777900747.758436,-1126,-1700,265,-2,-1,-2,-0.549805,-0.830078,0.129395,-0.122070,-0.061035,-0.122070,21.18,0
547314479,21916.162076,1777900747.759448,-1123,-1701,265,-3,0,-1,-0.548340,-0.830566,0.129395,-0.183105,0.000000,-0.061035,21.44,0
547315493,21916.162083,1777900747.760462,-1121,-1701,266,-4,0,0,-0.547363,-0.830566,0.129883,-0.244141,0.000000,0.000000,21.36,0
547316505,21916.162090,1777900747.761474,-1124,-1698,266,-3,0,0,-0.548828,-0.829102,0.129883,-0.183105,0.000000,0.000000,21.26,0
547317516,21916.170075,1777900747.762485,-1128,-1699,264,-3,-1,0,-0.550781,-0.829590,0.128906,-0.183105,-0.061035,0.000000,21.39,0
547318531,21916.170090,1777900747.763500,-1127,-1700,262,-3,-1,0,-0.550293,-0.830078,0.127930,-0.183105,-0.061035,0.000000,21.35,0
547319542,21916.170097,1777900747.764511,-1122,-1699,263,-4,-1,0,-0.547852,-0.829590,0.128418,-0.244141,-0.061035,0.000000,21.26,0
547320553,21916.170104,1777900747.765521,-1125,-1697,264,-3,0,0,-0.549316,-0.828613,0.128906,-0.183105,0.000000,0.000000,21.15,1
547321567,21916.170112,1777900747.766535,-1127,-1696,265,-3,1,0,-0.550293,-0.828125,0.129395,-0.183105,0.061035,0.000000,21.32,0
547322579,21916.170119,1777900747.767547,-1125,-1697,266,-3,0,-1,-0.549316,-0.828613,0.129883,-0.183105,0.000000,-0.061035,21.17,0
547323590,21916.170126,1777900747.768558,-1123,-1699,264,-3,-1,-1,-0.548340,-0.829590,0.128906,-0.183105,-0.061035,-0.061035,21.17,0
547324603,21916.170133,1777900747.769571,-1122,-1700,264,-3,-1,0,-0.547852,-0.830078,0.128906,-0.183105,-0.061035,0.000000,21.35,0
547325616,21916.178163,1777900747.770584,-1122,-1699,267,-2,-1,0,-0.547852,-0.829590,0.130371,-0.122070,-0.061035,0.000000,21.32,0
547326629,21916.178178,1777900747.771597,-1124,-1699,266,-3,-1,0,-0.548828,-0.829590,0.129883,-0.183105,-0.061035,0.000000,21.17,0
547327638,21916.178186,1777900747.772606,-1126,-1702,264,-4,-2,0,-0.549805,-0.831055,0.128906,-0.244141,-0.122070,0.000000,21.11,0
547328653,21916.178193,1777900747.773621,-1127,-1703,265,-4,-1,0,-0.550293,-0.831543,0.129395,-0.244141,-0.061035,0.000000,21.18,0
547329665,21916.178200,1777900747.774633,-1125,-1700,266,-2,0,0,-0.549316,-0.830078,0.129883,-0.122070,0.000000,0.000000,21.36,0
547330677,21916.178207,1777900747.775645,-1121,-1700,265,-3,0,0,-0.547363,-0.830078,0.129395,-0.183105,0.000000,0.000000,21.18,0
547331689,21916.178214,1777900747.776657,-1122,-1700,264,-3,-1,0,-0.547852,-0.830078,0.128906,-0.183105,-0.061035,0.000000,21.14,1
547332702,21916.178221,1777900747.777670,-1124,-1699,262,-3,-1,0,-0.548828,-0.829590,0.127930,-0.183105,-0.061035,0.000000,21.36,0
547333713,21916.186286,1777900747.778680,-1124,-1700,259,-3,0,0,-0.548828,-0.830078,0.126465,-0.183105,0.000000,0.000000,21.27,0
547334725,21916.186307,1777900747.779692,-1125,-1701,259,-2,-1,0,-0.549316,-0.830566,0.126465,-0.122070,-0.061035,0.000000,21.24,0
547335738,21916.186319,1777900747.780705,-1124,-1701,265,-2,-2,0,-0.548828,-0.830566,0.129395,-0.122070,-0.122070,0.000000,21.23,0
547336750,21916.186330,1777900747.781717,-1126,-1700,267,-2,-1,0,-0.549805,-0.830078,0.130371,-0.122070,-0.061035,0.000000,21.35,0
547337762,21916.186341,1777900747.782729,-1127,-1698,266,-3,0,1,-0.550293,-0.829102,0.129883,-0.183105,0.000000,0.061035,21.24,0
547338774,21916.186351,1777900747.783741,-1127,-1700,266,-3,-1,0,-0.550293,-0.830078,0.129883,-0.183105,-0.061035,0.000000,21.20,0
547339785,21916.186362,1777900747.784752,-1128,-1702,264,-3,-2,-1,-0.550781,-0.831055,0.128906,-0.183105,-0.122070,-0.061035,21.23,0
547340799,21916.186373,1777900747.785766,-1126,-1698,263,-3,-2,0,-0.549805,-0.829102,0.128418,-0.183105,-0.122070,0.000000,21.23,0
547341810,21916.194393,1777900747.786777,-1123,-1699,267,-3,-1,0,-0.548340,-0.829590,0.130371,-0.183105,-0.061035,0.000000,21.33,0
547342825,21916.194412,1777900747.787790,-1122,-1702,268,-2,-1,0,-0.547852,-0.831055,0.130859,-0.122070,-0.061035,0.000000,21.27,1
547343835,21916.194425,1777900747.788800,-1122,-1698,268,-1,-1,0,-0.547852,-0.829102,0.130859,-0.061035,-0.061035,0.000000,21.26,0
547344848,21916.194436,1777900747.789813,-1124,-1698,267,-2,-1,-1,-0.548828,-0.829102,0.130371,-0.122070,-0.061035,-0.061035,21.29,0
547345859,21916.194447,1777900747.790824,-1124,-1702,265,-3,-1,-1,-0.548828,-0.831055,0.129395,-0.183105,-0.061035,-0.061035,21.15,0
547346873,21916.194458,1777900747.791838,-1123,-1702,267,-3,0,0,-0.548340,-0.831055,0.130371,-0.183105,0.000000,0.000000,21.29,0
547347885,21916.194468,1777900747.792850,-1123,-1699,266,-2,0,-1,-0.548340,-0.829590,0.129883,-0.122070,0.000000,-0.061035,21.38,0
547348896,21916.194479,1777900747.793861,-1123,-1699,264,-1,-1,0,-0.548340,-0.829590,0.128906,-0.061035,-0.061035,0.000000,21.32,0
547349908,21916.202495,1777900747.794873,-1122,-1700,266,-2,-1,1,-0.547852,-0.830078,0.129883,-0.122070,-0.061035,0.061035,21.32,0
547350922,21916.202526,1777900747.795887,-1123,-1700,266,-2,-1,-1,-0.548340,-0.830078,0.129883,-0.122070,-0.061035,-0.061035,21.29,0
547351935,21916.202537,1777900747.796900,-1125,-1700,263,-3,-1,-1,-0.549316,-0.830078,0.128418,-0.183105,-0.061035,-0.061035,21.15,0
547352947,21916.202548,1777900747.797912,-1124,-1701,265,-4,-1,0,-0.548828,-0.830566,0.129395,-0.244141,-0.061035,0.000000,21.41,0
547353959,21916.202559,1777900747.798924,-1124,-1705,266,-4,-2,1,-0.548828,-0.832520,0.129883,-0.244141,-0.122070,0.061035,21.20,1
547354971,21916.202573,1777900747.799936,-1123,-1706,263,-4,-1,0,-0.548340,-0.833008,0.128418,-0.244141,-0.061035,0.000000,21.30,0
547355982,21916.202584,1777900747.800947,-1124,-1702,263,-4,-1,-1,-0.548828,-0.831055,0.128418,-0.244141,-0.061035,-0.061035,21.41,0
547356994,21916.202595,1777900747.801959,-1124,-1700,265,-4,-1,0,-0.548828,-0.830078,0.129395,-0.244141,-0.061035,0.000000,21.41,0
547358006,21916.210557,1777900747.802970,-1121,-1700,264,-2,-1,0,-0.547363,-0.830078,0.128906,-0.122070,-0.061035,0.000000,21.29,0
547359020,21916.210571,1777900747.803984,-1120,-1698,264,-1,-2,0,-0.546875,-0.829102,0.128906,-0.061035,-0.122070,0.000000,21.14,0
547360032,21916.210579,1777900747.804996,-1122,-1695,264,-2,-1,-1,-0.547852,-0.827637,0.128906,-0.122070,-0.061035,-0.061035,21.17,0
547361043,21916.210586,1777900747.806007,-1123,-1698,263,-3,0,-1,-0.548340,-0.829102,0.128418,-0.183105,0.000000,-0.061035,21.26,0
547362055,21916.210593,1777900747.807019,-1124,-1700,264,-2,0,-1,-0.548828,-0.830078,0.128906,-0.122070,0.000000,-0.061035,21.14,0
547363069,21916.210600,1777900747.808033,-1125,-1699,264,-3,-1,0,-0.549316,-0.829590,0.128906,-0.183105,-0.061035,0.000000,21.23,0
547364082,21916.210607,1777900747.809046,-1123,-1698,267,-3,-1,0,-0.548340,-0.829102,0.130371,-0.183105,-0.061035,0.000000,21.23,0
547365101,21916.210614,1777900747.810065,-1121,-1699,264,-3,-1,0,-0.547363,-0.829590,0.128906,-0.183105,-0.061035,0.000000,21.36,1
547366105,21916.218653,1777900747.811067,-1120,-1699,260,-2,-1,0,-0.546875,-0.829590,0.126953,-0.122070,-0.061035,0.000000,21.26,0
547367119,21916.218697,1777900747.812081,-1121,-1699,260,-2,-1,0,-0.547363,-0.829590,0.126953,-0.122070,-0.061035,0.000000,21.23,0
547368129,21916.218736,1777900747.813091,-1123,-1698,260,-3,-1,-1,-0.548340,-0.829102,0.126953,-0.183105,-0.061035,-0.061035,21.38,0
547369141,21916.218744,1777900747.814103,-1125,-1699,259,-3,-1,-1,-0.549316,-0.829590,0.126465,-0.183105,-0.061035,-0.061035,21.24,0
547370155,21916.218751,1777900747.815117,-1125,-1701,260,-4,-2,0,-0.549316,-0.830566,0.126953,-0.244141,-0.122070,0.000000,21.26,0
547371166,21916.218757,1777900747.816128,-1124,-1697,261,-3,-1,-1,-0.548828,-0.828613,0.127441,-0.183105,-0.061035,-0.061035,21.23,0
547372178,21916.218764,1777900747.817140,-1123,-1696,264,-2,-1,-1,-0.548340,-0.828125,0.128906,-0.122070,-0.061035,-0.061035,21.24,0
547373192,21916.218771,1777900747.818154,-1122,-1699,266,-3,-1,0,-0.547852,-0.829590,0.129883,-0.183105,-0.061035,0.000000,21.45,0
547374205,21916.226756,1777900747.819167,-1124,-1700,266,-4,-2,0,-0.548828,-0.830078,0.129883,-0.244141,-0.122070,0.000000,21.26,0
547375217,21916.226768,1777900747.820179,-1123,-1698,268,-3,-1,0,-0.548340,-0.829102,0.130859,-0.183105,-0.061035,0.000000,21.20,0
547376229,21916.226775,1777900747.821189,-1123,-1696,267,-3,0,0,-0.548340,-0.828125,0.130371,-0.183105,0.000000,0.000000,21.32,1
547377241,21916.226784,1777900747.822201,-1124,-1699,265,-3,-1,0,-0.548828,-0.829590,0.129395,-0.183105,-0.061035,0.000000,21.26,0
547378253,21916.226791,1777900747.823213,-1123,-1698,266,-3,-1,0,-0.548340,-0.829102,0.129883,-0.183105,-0.061035,0.000000,21.32,0
547379264,21916.226798,1777900747.824224,-1122,-1696,263,-3,-1,-1,-0.547852,-0.828125,0.128418,-0.183105,-0.061035,-0.061035,21.27,0
547380278,21916.226804,1777900747.825238,-1123,-1698,263,-3,-1,0,-0.548340,-0.829102,0.128418,-0.183105,-0.061035,0.000000,21.17,0
547381290,21916.226811,1777900747.826250,-1125,-1698,267,-4,-1,0,-0.549316,-0.829102,0.130371,-0.244141,-0.061035,0.000000,21.33,0
547382301,21916.234863,1777900747.827261,-1125,-1697,268,-3,-1,0,-0.549316,-0.828613,0.130859,-0.183105,-0.061035,0.000000,20.79,0
547383313,21916.234874,1777900747.828273,-1124,-1698,267,-2,-1,0,-0.548828,-0.829102,0.130371,-0.122070,-0.061035,0.000000,21.17,0
547384326,21916.234881,1777900747.829286,-1126,-1703,268,-2,-2,0,-0.549805,-0.831543,0.130859,-0.122070,-0.122070,0.000000,21.32,0
547385340,21916.234888,1777900747.830300,-1126,-1704,267,-2,-2,-1,-0.549805,-0.832031,0.130371,-0.122070,-0.122070,-0.061035,21.21,0
547386351,21916.234895,1777900747.831311,-1126,-1700,266,-3,-1,-1,-0.549805,-0.830078,0.129883,-0.183105,-0.061035,-0.061035,21.20,0
547387364,21916.234902,1777900747.832324,-1126,-1697,268,-3,-1,0,-0.549805,-0.828613,0.130859,-0.183105,-0.061035,0.000000,21.23,1
547388375,21916.234910,1777900747.833335,-1123,-1699,264,-1,0,0,-0.548340,-0.829590,0.128906,-0.061035,0.000000,0.000000,21.17,0
547389386,21916.234917,1777900747.834346,-1123,-1703,263,-2,0,0,-0.548340,-0.831543,0.128418,-0.122070,0.000000,0.000000,21.30,0
547390401,21916.242955,1777900747.835360,-1124,-1701,265,-3,-1,0,-0.548828,-0.830566,0.129395,-0.183105,-0.061035,0.000000,21.32,0
547391410,21916.242969,1777900747.836369,-1124,-1700,264,-2,-1,-1,-0.548828,-0.830078,0.128906,-0.122070,-0.061035,-0.061035,21.35,0
547392423,21916.242976,1777900747.837381,-1122,-1699,261,-2,-1,-1,-0.547852,-0.829590,0.127441,-0.122070,-0.061035,-0.061035,21.38,0
547393436,21916.242983,1777900747.838394,-1120,-1698,263,-3,-1,0,-0.546875,-0.829102,0.128418,-0.183105,-0.061035,0.000000,21.27,0
547394450,21916.242990,1777900747.839408,-1122,-1697,267,-2,-1,0,-0.547852,-0.828613,0.130371,-0.122070,-0.061035,0.000000,21.30,0
547395462,21916.242997,1777900747.840420,-1123,-1697,267,-1,-1,0,-0.548340,-0.828613,0.130371,-0.061035,-0.061035,0.000000,21.32,0
547396473,21916.243011,1777900747.841431,-1124,-1696,265,-2,-1,-1,-0.548828,-0.828125,0.129395,-0.122070,-0.061035,-0.061035,21.32,0
547397485,21916.243019,1777900747.842443,-1127,-1698,264,-2,-1,-1,-0.550293,-0.829102,0.128906,-0.122070,-0.061035,-0.061035,21.33,0
547398499,21916.251042,1777900747.843456,-1127,-1698,264,-2,-2,-1,-0.550293,-0.829102,0.128906,-0.122070,-0.122070,-0.061035,21.18,1
547399510,21916.251058,1777900747.844467,-1125,-1697,265,-3,-2,-1,-0.549316,-0.828613,0.129395,-0.183105,-0.122070,-0.061035,21.32,0
547400522,21916.251065,1777900747.845479,-1125,-1701,266,-3,-2,-1,-0.549316,-0.830566,0.129883,-0.183105,-0.122070,-0.061035,21.23,0
547401534,21916.251073,1777900747.846491,-1121,-1703,266,-3,-1,-1,-0.547363,-0.831543,0.129883,-0.183105,-0.061035,-0.061035,21.21,0
547402547,21916.251080,1777900747.847504,-1119,-1701,267,-3,-1,0,-0.546387,-0.830566,0.130371,-0.183105,-0.061035,0.000000,21.29,0
547403560,21916.251087,1777900747.848517,-1122,-1699,267,-3,-2,1,-0.547852,-0.829590,0.130371,-0.183105,-0.122070,0.061035,21.20,0
547404571,21916.251094,1777900747.849528,-1123,-1698,262,-3,-2,1,-0.548340,-0.829102,0.127930,-0.183105,-0.122070,0.061035,21.26,0
547405584,21916.251101,1777900747.850541,-1122,-1700,263,-4,-1,-1,-0.547852,-0.830078,0.128418,-0.244141,-0.061035,-0.061035,21.32,0
547406595,21916.259162,1777900747.851552,-1126,-1700,266,-5,-1,-1,-0.549805,-0.830078,0.129883,-0.305176,-0.061035,-0.061035,21.24,0
547407608,21916.259198,1777900747.852565,-1129,-1698,264,-3,-1,0,-0.551270,-0.829102,0.128906,-0.183105,-0.061035,0.000000,21.26,0
547408621,21916.259208,1777900747.853577,-1126,-1694,264,-2,0,0,-0.549805,-0.827148,0.128906,-0.122070,0.000000,0.000000,21.23,0
547409633,21916.259217,1777900747.854588,-1122,-1696,267,-3,-1,0,-0.547852,-0.828125,0.130371,-0.183105,-0.061035,0.000000,21.21,1
547410645,21916.259228,1777900747.855600,-1122,-1698,267,-3,-2,-1,-0.547852,-0.829102,0.130371,-0.183105,-0.122070,-0.061035,21.27,0
547411656,21916.259237,1777900747.856611,-1123,-1697,265,-2,-1,-1,-0.548340,-0.828613,0.129395,-0.122070,-0.061035,-0.061035,21.35,0
547412669,21916.259246,1777900747.857624,-1124,-1696,262,-3,-1,0,-0.548828,-0.828125,0.127930,-0.183105,-0.061035,0.000000,21.38,0
547413682,21916.259254,1777900747.858637,-1123,-1697,266,-4,-1,0,-0.548340,-0.828613,0.129883,-0.244141,-0.061035,0.000000,21.38,0
547414693,21916.267291,1777900747.859648,-1124,-1700,269,-3,-1,0,-0.548828,-0.830078,0.131348,-0.183105,-0.061035,0.000000,21.30,0
547415705,21916.267306,1777900747.860660,-1123,-1702,266,-2,-1,1,-0.548340,-0.831055,0.129883,-0.122070,-0.061035,0.061035,21.07,0
547416718,21916.267325,1777900747.861673,-1120,-1700,263,-2,-1,1,-0.546875,-0.830078,0.128418,-0.122070,-0.061035,0.061035,21.17,0
547417731,21916.267332,1777900747.862686,-1124,-1697,264,-3,0,0,-0.548828,-0.828613,0.128906,-0.183105,0.000000,0.000000,21.29,0
547418742,21916.267339,1777900747.863697,-1127,-1697,264,-4,-1,0,-0.550293,-0.828613,0.128906,-0.244141,-0.061035,0.000000,21.23,0
547419754,21916.267346,1777900747.864709,-1126,-1699,263,-3,-2,0,-0.549805,-0.829590,0.128418,-0.183105,-0.122070,0.000000,21.30,0
547420768,21916.267353,1777900747.865723,-1125,-1699,265,-2,-1,0,-0.549316,-0.829590,0.129395,-0.122070,-0.061035,0.000000,21.23,1
547421780,21916.267361,1777900747.866735,-1124,-1696,264,-2,0,0,-0.548828,-0.828125,0.128906,-0.122070,0.000000,0.000000,21.35,0
547422793,21916.275366,1777900747.867746,-1124,-1699,261,-3,0,0,-0.548828,-0.829590,0.127441,-0.183105,0.000000,0.000000,21.14,0
547423804,21916.275383,1777900747.868757,-1122,-1701,263,-2,-1,0,-0.547852,-0.830566,0.128418,-0.122070,-0.061035,0.000000,21.33,0
547424818,21916.275392,1777900747.869771,-1122,-1700,263,-2,-1,0,-0.547852,-0.830078,0.128418,-0.122070,-0.061035,0.000000,21.32,0
547425828,21916.275399,1777900747.870781,-1123,-1697,262,-3,-1,0,-0.548340,-0.828613,0.127930,-0.183105,-0.061035,0.000000,21.29,0
547426842,21916.275406,1777900747.871795,-1124,-1696,264,-3,-2,-1,-0.548828,-0.828125,0.128906,-0.183105,-0.122070,-0.061035,21.38,0
547427854,21916.275413,1777900747.872807,-1125,-1698,265,-2,-1,-1,-0.549316,-0.829102,0.129395,-0.122070,-0.061035,-0.061035,21.27,0
547428865,21916.275420,1777900747.873818,-1123,-1700,266,-3,-1,-1,-0.548340,-0.830078,0.129883,-0.183105,-0.061035,-0.061035,21.29,0
547429876,21916.275428,1777900747.874829,-1122,-1700,268,-3,-1,0,-0.547852,-0.830078,0.130859,-0.183105,-0.061035,0.000000,21.23,0
547430890,21916.283462,1777900747.875843,-1124,-1696,266,-4,-1,0,-0.548828,-0.828125,0.129883,-0.244141,-0.061035,0.000000,21.12,0
547431901,21916.283482,1777900747.876852,-1125,-1696,262,-4,-1,0,-0.549316,-0.828125,0.127930,-0.244141,-0.061035,0.000000,21.20,1
547432915,21916.283494,1777900747.877866,-1124,-1699,262,-4,0,-1,-0.548828,-0.829590,0.127930,-0.244141,0.000000,-0.061035,21.14,0
547433925,21916.283505,1777900747.878876,-1124,-1702,262,-3,-1,0,-0.548828,-0.831055,0.127930,-0.183105,-0.061035,0.000000,21.15,0
547434939,21916.283515,1777900747.879890,-1125,-1700,263,-2,-1,0,-0.549316,-0.830078,0.128418,-0.122070,-0.061035,0.000000,21.17,0
547435950,21916.283525,1777900747.880901,-1125,-1698,264,-2,-1,0,-0.549316,-0.829102,0.128906,-0.122070,-0.061035,0.000000,21.24,0
547436963,21916.283536,1777900747.881914,-1124,-1698,262,-2,0,0,-0.548828,-0.829102,0.127930,-0.122070,0.000000,0.000000,21.41,0
547437977,21916.283546,1777900747.882928,-1123,-1697,261,-2,0,1,-0.548340,-0.828613,0.127441,-0.122070,0.000000,0.061035,21.53,0
547438989,21916.291547,1777900747.883940,-1124,-1697,263,-3,-1,0,-0.548828,-0.828613,0.128418,-0.183105,-0.061035,0.000000,21.32,0
547439999,21916.291569,1777900747.884950,-1124,-1701,264,-3,-2,0,-0.548828,-0.830566,0.128906,-0.183105,-0.122070,0.000000,21.15,0
547441013,21916.291577,1777900747.885964,-1122,-1701,264,-3,-1,0,-0.547852,-0.830566,0.128906,-0.183105,-0.061035,0.000000,21.20,0
547442023,21916.291584,1777900747.886974,-1121,-1698,266,-3,-1,0,-0.547363,-0.829102,0.129883,-0.183105,-0.061035,0.000000,21.32,0
547443037,21916.291590,1777900747.887988,-1119,-1699,267,-2,-1,0,-0.546387,-0.829590,0.130371,-0.122070,-0.061035,0.000000,21.26,1
547444048,21916.291601,1777900747.888999,-1121,-1698,265,-2,-2,-1,-0.547363,-0.829102,0.129395,-0.122070,-0.122070,-0.061035,21.14,0
547445060,21916.291608,1777900747.890011,-1123,-1698,265,-3,-2,-1,-0.548340,-0.829102,0.129395,-0.183105,-0.122070,-0.061035,21.15,0
547446074,21916.291615,1777900747.891025,-1122,-1700,267,-2,-1,0,-0.547852,-0.830078,0.130371,-0.122070,-0.061035,0.000000,21.33,0
547447096,21916.299647,1777900747.892045,-1123,-1701,266,-3,-1,-1,-0.548340,-0.830566,0.129883,-0.183105,-0.061035,-0.061035,21.23,0
547448099,21916.299658,1777900747.893048,-1124,-1700,265,-3,-1,-1,-0.548828,-0.830078,0.129395,-0.183105,-0.061035,-0.061035,21.20,0
547449111,21916.299665,1777900747.894060,-1122,-1699,263,-4,-1,-1,-0.547852,-0.829590,0.128418,-0.244141,-0.061035,-0.061035,21.41,0
547450122,21916.299672,1777900747.895071,-1120,-1699,262,-4,-1,-1,-0.546875,-0.829590,0.127930,-0.244141,-0.061035,-0.061035,21.42,0
547451135,21916.299679,1777900747.896084,-1120,-1701,263,-4,-1,0,-0.546875,-0.830566,0.128418,-0.244141,-0.061035,0.000000,21.32,0
547452147,21916.299686,1777900747.897096,-1124,-1700,263,-3,-1,0,-0.548828,-0.830078,0.128418,-0.183105,-0.061035,0.000000,21.14,0
547453158,21916.299693,1777900747.898107,-1125,-1701,264,-2,0,-1,-0.549316,-0.830566,0.128906,-0.122070,0.000000,-0.061035,21.15,0
547454173,21916.299700,1777900747.899122,-1122,-1703,265,-3,0,-1,-0.547852,-0.831543,0.129395,-0.183105,0.000000,-0.061035,21.11,1
547455185,21916.307753,1777900747.900132,-1122,-1701,266,-3,-1,-1,-0.547852,-0.830566,0.129883,-0.183105,-0.061035,-0.061035,21.24,0
547456197,21916.307768,1777900747.901144,-1123,-1700,267,-3,-1,-1,-0.548340,-0.830078,0.130371,-0.183105,-0.061035,-0.061035,21.23,0
547457210,21916.307779,1777900747.902157,-1122,-1701,265,-3,-1,0,-0.547852,-0.830566,0.129395,-0.183105,-0.061035,0.000000,21.27,0
547458222,21916.307789,1777900747.903169,-1123,-1697,262,-3,0,0,-0.548340,-0.828613,0.127930,-0.183105,0.000000,0.000000,21.21,0
547459234,21916.307799,1777900747.904181,-1124,-1695,263,-2,-1,0,-0.548828,-0.827637,0.128418,-0.122070,-0.061035,0.000000,21.12,0
547460245,21916.307810,1777900747.905192,-1125,-1699,263,-3,-2,-1,-0.549316,-0.829590,0.128418,-0.183105,-0.122070,-0.061035,21.29,0
547461259,21916.307819,1777900747.906206,-1125,-1702,262,-3,-1,0,-0.549316,-0.831055,0.127930,-0.183105,-0.061035,0.000000,21.24,0
547462271,21916.307826,1777900747.907218,-1122,-1703,263,-3,-1,0,-0.547852,-0.831543,0.128418,-0.183105,-0.061035,0.000000,21.29,0
547463281,21916.315832,1777900747.908228,-1123,-1701,266,-2,-2,-1,-0.548340,-0.830566,0.129883,-0.122070,-0.122070,-0.061035,21.15,0
547464296,21916.315851,1777900747.909243,-1124,-1698,266,-2,-1,-1,-0.548828,-0.829102,0.129883,-0.122070,-0.061035,-0.061035,21.14,0
547465307,21916.315863,1777900747.910252,-1125,-1697,266,-2,-1,0,-0.549316,-0.828613,0.129883,-0.122070,-0.061035,0.000000,21.11,1
547466320,21916.315875,1777900747.911265,-1126,-1699,265,-3,-1,0,-0.549805,-0.829590,0.129395,-0.183105,-0.061035,0.000000,21.18,0
547467331,21916.315886,1777900747.912276,-1123,-1702,260,-3,0,0,-0.548340,-0.831055,0.126953,-0.183105,0.000000,0.000000,21.29,0
547468342,21916.315897,1777900747.913287,-1122,-1700,257,-3,-1,0,-0.547852,-0.830078,0.125488,-0.183105,-0.061035,0.000000,21.20,0
547469356,21916.315907,1777900747.914301,-1124,-1699,261,-3,-1,-1,-0.548828,-0.829590,0.127441,-0.183105,-0.061035,-0.061035,21.26,0
547470367,21916.315918,1777900747.915312,-1123,-1699,266,-3,-1,0,-0.548340,-0.829590,0.129883,-0.183105,-0.061035,0.000000,21.29,0
547471380,21916.323924,1777900747.916325,-1123,-1697,266,-3,-1,0,-0.548340,-0.828613,0.129883,-0.183105,-0.061035,0.000000,21.35,0
547472391,21916.323939,1777900747.917336,-1122,-1697,264,-3,-1,0,-0.547852,-0.828613,0.128906,-0.183105,-0.061035,0.000000,21.24,0
547473404,21916.323946,1777900747.918349,-1123,-1700,264,-2,-1,0,-0.548340,-0.830078,0.128906,-0.122070,-0.061035,0.000000,21.14,0
547474417,21916.323953,1777900747.919362,-1124,-1703,261,-1,-1,0,-0.548828,-0.831543,0.127441,-0.061035,-0.061035,0.000000,21.14,0
547475430,21916.323960,1777900747.920375,-1123,-1701,259,-2,-1,0,-0.548340,-0.830566,0.126465,-0.122070,-0.061035,0.000000,21.29,0
547476442,21916.323975,1777900747.921386,-1125,-1698,261,-3,0,-1,-0.549316,-0.829102,0.127441,-0.183105,0.000000,-0.061035,21.26,1
547477453,21916.323993,1777900747.922398,-1127,-1698,264,-3,0,-1,-0.550293,-0.829102,0.128906,-0.183105,0.000000,-0.061035,21.20,0
547478465,21916.324005,1777900747.923409,-1125,-1699,265,-2,0,0,-0.549316,-0.829590,0.129395,-0.122070,0.000000,0.000000,21.41,0
547479479,21916.332045,1777900747.924422,-1124,-1698,265,-2,-1,0,-0.548828,-0.829102,0.129395,-0.122070,-0.061035,0.000000,21.33,0
547480491,21916.332072,1777900747.925433,-1126,-1700,265,-3,-1,0,-0.549805,-0.830078,0.129395,-0.183105,-0.061035,0.000000,21.29,0
547481504,21916.332085,1777900747.926446,-1125,-1701,263,-4,-1,-1,-0.549316,-0.830566,0.128418,-0.244141,-0.061035,-0.061035,21.20,0
547482516,21916.332099,1777900747.927459,-1122,-1698,263,-4,-1,-1,-0.547852,-0.829102,0.128418,-0.244141,-0.061035,-0.061035,21.27,0
547483528,21916.332114,1777900747.928470,-1123,-1698,262,-3,-1,-1,-0.548340,-0.829102,0.127930,-0.183105,-0.061035,-0.061035,21.18,0
547484540,21916.332128,1777900747.929482,-1122,-1702,264,-2,-1,-1,-0.547852,-0.831055,0.128906,-0.122070,-0.061035,-0.061035,21.39,0
547485551,21916.332139,1777900747.930493,-1119,-1701,264,-3,-2,0,-0.546387,-0.830566,0.128906,-0.183105,-0.122070,0.000000,21.12,0
547486563,21916.332150,1777900747.931505,-1121,-1698,262,-3,-1,-1,-0.547363,-0.829102,0.127930,-0.183105,-0.061035,-0.061035,21.41,0
547487576,21916.340125,1777900747.932517,-1123,-1702,262,-3,0,-1,-0.548340,-0.831055,0.127930,-0.183105,0.000000,-0.061035,21.18,1
547488589,21916.340145,1777900747.933529,-1121,-1703,261,-3,-1,-1,-0.547363,-0.831543,0.127441,-0.183105,-0.061035,-0.061035,21.11,0
547489602,21916.340157,1777900747.934542,-1120,-1701,261,-3,-2,0,-0.546875,-0.830566,0.127441,-0.183105,-0.122070,0.000000,21.24,0
547490614,21916.340168,1777900747.935555,-1125,-1702,264,-2,-1,-1,-0.549316,-0.831055,0.128906,-0.122070,-0.061035,-0.061035,21.35,0
547491626,21916.340179,1777900747.936566,-1126,-1702,266,-2,-2,-1,-0.549805,-0.831055,0.129883,-0.122070,-0.122070,-0.061035,21.23,0
547492638,21916.340190,1777900747.937578,-1124,-1700,264,-4,-2,0,-0.548828,-0.830078,0.128906,-0.244141,-0.122070,0.000000,21.23,0
547493649,21916.340201,1777900747.938589,-1123,-1699,261,-5,-2,0,-0.548340,-0.829590,0.127441,-0.305176,-0.122070,0.000000,21.27,0
547494662,21916.340247,1777900747.939602,-1124,-1699,258,-3,-2,0,-0.548828,-0.829590,0.125977,-0.183105,-0.122070,0.000000,21.38,0
547495675,21916.348280,1777900747.940615,-1124,-1701,260,-3,-2,0,-0.548828,-0.830566,0.126953,-0.183105,-0.122070,0.000000,21.24,0
547496686,21916.348298,1777900747.941626,-1124,-1701,265,-3,-2,0,-0.548828,-0.830566,0.129395,-0.183105,-0.122070,0.000000,21.20,0
547497698,21916.348306,1777900747.942638,-1125,-1700,265,-2,-1,-1,-0.549316,-0.830078,0.129395,-0.122070,-0.061035,-0.061035,21.26,0
547498711,21916.348313,1777900747.943649,-1125,-1699,263,-1,0,-1,-0.549316,-0.829590,0.128418,-0.061035,0.000000,-0.061035,21.29,1
547499722,21916.348322,1777900747.944660,-1121,-1698,264,-2,-1,-1,-0.547363,-0.829102,0.128906,-0.122070,-0.061035,-0.061035,21.30,0
547500736,21916.348329,1777900747.945674,-1120,-1698,264,-3,-2,1,-0.546875,-0.829102,0.128906,-0.183105,-0.122070,0.061035,21.33,0
547501748,21916.348336,1777900747.946686,-1123,-1698,264,-3,-1,1,-0.548340,-0.829102,0.128906,-0.183105,-0.061035,0.061035,21.29,0
547502759,21916.348343,1777900747.947697,-1123,-1702,262,-3,0,0,-0.548340,-0.831055,0.127930,-0.183105,0.000000,0.000000,21.39,0
547503774,21916.356316,1777900747.948712,-1123,-1701,264,-3,-1,0,-0.548340,-0.830566,0.128906,-0.183105,-0.061035,0.000000,21.11,0
547504786,21916.356333,1777900747.949724,-1125,-1697,266,-3,-2,0,-0.549316,-0.828613,0.129883,-0.183105,-0.122070,0.000000,21.20,0
547505797,21916.356345,1777900747.950735,-1124,-1698,264,-3,-1,0,-0.548828,-0.829102,0.128906,-0.183105,-0.061035,0.000000,21.20,0
547506810,21916.356356,1777900747.951748,-1124,-1699,266,-2,-1,0,-0.548828,-0.829590,0.129883,-0.122070,-0.061035,0.000000,21.39,0
547507823,21916.356367,1777900747.952761,-1126,-1700,267,-2,-1,-1,-0.549805,-0.830078,0.130371,-0.122070,-0.061035,-0.061035,21.35,0
547508835,21916.356382,1777900747.953773,-1126,-1700,264,-3,-2,0,-0.549805,-0.830078,0.128906,-0.183105,-0.122070,0.000000,21.18,0
547509845,21916.356399,1777900747.954783,-1125,-1700,262,-3,-2,1,-0.549316,-0.830078,0.127930,-0.183105,-0.122070,0.061035,21.18,1
547510859,21916.356412,1777900747.955797,-1124,-1698,262,-2,-2,1,-0.548828,-0.829102,0.127930,-0.122070,-0.122070,0.061035,21.26,0
547511871,21916.364414,1777900747.956807,-1123,-1698,266,-2,-1,0,-0.548340,-0.829102,0.129883,-0.122070,-0.061035,0.000000,21.23,0
547512883,21916.364433,1777900747.957819,-1121,-1700,268,-3,-1,-1,-0.547363,-0.830078,0.130859,-0.183105,-0.061035,-0.061035,21.33,0
547513896,21916.364444,1777900747.958832,-1120,-1698,266,-3,0,0,-0.546875,-0.829102,0.129883,-0.183105,0.000000,0.000000,21.20,0
547514907,21916.364456,1777900747.959843,-1120,-1697,267,-2,0,0,-0.546875,-0.828613,0.130371,-0.122070,0.000000,0.000000,21.26,0
547515920,21916.364466,1777900747.960856,-1121,-1698,268,-2,-1,-1,-0.547363,-0.829102,0.130859,-0.122070,-0.061035,-0.061035,21.26,0
547516932,21916.364473,1777900747.961868,-1122,-1700,263,-2,-1,0,-0.547852,-0.830078,0.128418,-0.122070,-0.061035,0.000000,21.18,0
547517943,21916.364480,1777900747.962879,-1124,-1702,265,-3,-1,0,-0.548828,-0.831055,0.129395,-0.183105,-0.061035,0.000000,21.41,0
547518957,21916.364487,1777900747.963893,-1124,-1701,265,-3,-2,0,-0.548828,-0.830566,0.129395,-0.183105,-0.122070,0.000000,21.15,0
547519969,21916.372512,1777900747.964905,-1123,-1700,262,-3,-1,-1,-0.548340,-0.830078,0.127930,-0.183105,-0.061035,-0.061035,21.17,0
547520981,21916.372531,1777900747.965914,-1123,-1699,267,-3,-1,-1,-0.548340,-0.829590,0.130371,-0.183105,-0.061035,-0.061035,21.29,1
547521994,21916.372544,1777900747.966928,-1123,-1698,268,-3,-1,-1,-0.548340,-0.829102,0.130859,-0.183105,-0.061035,-0.061035,21.23,0
547523005,21916.372555,1777900747.967939,-1127,-1696,263,-3,-1,0,-0.550293,-0.828125,0.128418,-0.183105,-0.061035,0.000000,21.27,0
547524018,21916.372567,1777900747.968951,-1131,-1699,264,-3,0,0,-0.552246,-0.829590,0.128906,-0.183105,0.000000,0.000000,21.32,0
547525031,21916.372577,1777900747.969965,-1127,-1701,267,-2,0,-1,-0.550293,-0.830566,0.130371,-0.122070,0.000000,-0.061035,21.38,0
547526042,21916.372588,1777900747.970975,-1123,-1700,263,-3,-1,-1,-0.548340,-0.830078,0.128418,-0.183105,-0.061035,-0.061035,21.26,0
547527053,21916.372599,1777900747.971987,-1122,-1701,259,-3,-1,0,-0.547852,-0.830566,0.126465,-0.183105,-0.061035,0.000000,21.23,0
547528066,21916.380640,1777900747.972999,-1125,-1700,263,-3,-1,1,-0.549316,-0.830078,0.128418,-0.183105,-0.061035,0.061035,21.17,0
547529079,21916.380664,1777900747.974012,-1126,-1697,266,-3,-1,1,-0.549805,-0.828613,0.129883,-0.183105,-0.061035,0.061035,21.35,0
547530102,21916.380675,1777900747.975035,-1125,-1699,262,-3,-1,0,-0.549316,-0.829590,0.127930,-0.183105,-0.061035,0.000000,21.06,0
547531102,21916.380687,1777900747.976035,-1125,-1703,262,-3,-1,-1,-0.549316,-0.831543,0.127930,-0.183105,-0.061035,-0.061035,21.36,0
547532116,21916.380698,1777900747.977047,-1124,-1703,266,-3,-2,0,-0.548828,-0.831543,0.129883,-0.183105,-0.122070,0.000000,21.24,1
547533129,21916.380711,1777900747.978060,-1121,-1701,266,-2,-1,1,-0.547363,-0.830566,0.129883,-0.122070,-0.061035,0.061035,21.35,0
