esp_timestamp_us,host_timestamp_s,unified_time_s,accel_x_raw,accel_y_raw,accel_z_raw,gyro_x_raw,gyro_y_raw,gyro_z_raw,accel_x_g,accel_y_g,accel_z_g,gyro_x_dps,gyro_y_dps,gyro_z_dps,temperature_c,fsync_flag
2467318622,23836.115151,1777902667.720473,-1183,-1387,966,-2,-2,-1,-0.577637,-0.677246,0.471680,-0.122070,-0.122070,-0.061035,21.35,0
2467319635,23836.115196,1777902667.721486,-1182,-1385,968,-2,-2,-1,-0.577148,-0.676270,0.472656,-0.122070,-0.122070,-0.061035,21.42,0
2467320647,23836.115210,1777902667.722498,-1179,-1384,965,-2,-2,-1,-0.575684,-0.675781,0.471191,-0.122070,-0.122070,-0.061035,21.47,0
2467321661,23836.115221,1777902667.723512,-1179,-1387,965,-2,-2,-2,-0.575684,-0.677246,0.471191,-0.122070,-0.122070,-0.122070,21.38,0
2467322673,23836.115232,1777902667.724524,-1183,-1390,967,-3,-2,-1,-0.577637,-0.678711,0.472168,-0.183105,-0.122070,-0.061035,21.44,0
2467323685,23836.115243,1777902667.725536,-1185,-1390,965,-3,-1,-1,-0.578613,-0.678711,0.471191,-0.183105,-0.061035,-0.061035,21.23,1
2467324697,23836.115267,1777902667.726548,-1183,-1390,966,-2,-1,-1,-0.577637,-0.678711,0.471680,-0.122070,-0.061035,-0.061035,21.30,0
2467325707,23836.115277,1777902667.727558,-1185,-1388,969,-1,0,-1,-0.578613,-0.677734,0.473145,-0.061035,0.000000,-0.061035,21.38,0
2467326721,23836.123240,1777902667.728572,-1185,-1385,968,-1,0,-1,-0.578613,-0.676270,0.472656,-0.061035,0.000000,-0.061035,21.47,0
2467327732,23836.123256,1777902667.729583,-1178,-1385,963,-1,-1,-1,-0.575195,-0.676270,0.470215,-0.061035,-0.061035,-0.061035,21.42,0
2467328744,23836.123267,1777902672.240126,-1178,-1387,962,-1,-1,-1,-0.575195,-0.677246,0.469727,-0.061035,-0.061035,-0.061035,21.39,0
2467329758,23836.123277,1777902671.543761,-1185,-1387,966,-1,-1,0,-0.578613,-0.677246,0.471680,-0.061035,-0.061035,0.000000,21.47,0
2467330770,23836.123288,1777902670.755804,-1186,-1387,968,-2,-2,-1,-0.579102,-0.677246,0.472656,-0.122070,-0.122070,-0.061035,21.33,0
2467331781,23836.123298,1777902669.965183,-1183,-1388,966,-2,-2,-1,-0.577637,-0.677734,0.471680,-0.122070,-0.122070,-0.061035,21.44,0
2467332795,23836.123308,1777902669.169260,-1183,-1386,963,-3,-3,0,-0.577637,-0.676758,0.470215,-0.183105,-0.183105,0.000000,21.45,0
2467333808,23836.123318,1777902668.468162,-1181,-1388,962,-2,-3,0,-0.576660,-0.677734,0.469727,-0.122070,-0.183105,0.000000,21.56,0
2467334819,23836.131797,1777902667.723944,-1180,-1392,963,-2,-2,0,-0.576172,-0.679688,0.470215,-0.122070,-0.122070,0.000000,21.42,1
2467335832,23836.131821,1777902667.724957,-1186,-1387,965,-3,-2,0,-0.579102,-0.677246,0.471191,-0.183105,-0.122070,0.000000,21.50,0
2467336844,23836.131831,1777902667.725970,-1187,-1383,966,-1,-2,-1,-0.579590,-0.675293,0.471680,-0.061035,-0.122070,-0.061035,21.45,0
2467337856,23836.131842,1777902667.726982,-1184,-1386,965,-1,-1,-1,-0.578125,-0.676758,0.471191,-0.061035,-0.061035,-0.061035,21.47,0
2467338868,23836.131852,1777902667.727994,-1183,-1384,965,-2,-2,-1,-0.577637,-0.675781,0.471191,-0.122070,-0.122070,-0.061035,21.41,0
2467339881,23836.131862,1777902667.729008,-1184,-1383,968,-4,-2,-2,-0.578125,-0.675293,0.472656,-0.244141,-0.122070,-0.122070,21.45,0
2467340894,23836.131872,1777902667.730021,-1183,-1387,970,-4,-2,-1,-0.577637,-0.677246,0.473633,-0.244141,-0.122070,-0.061035,21.47,0
2467341904,23836.131882,1777902667.731031,-1180,-1387,966,-4,-3,-2,-0.576172,-0.677246,0.471680,-0.244141,-0.183105,-0.122070,21.45,0
2467342916,23836.139454,1777902667.732044,-1181,-1388,966,-3,-2,-2,-0.576660,-0.677734,0.471680,-0.183105,-0.122070,-0.122070,21.50,0
2467343930,23836.139473,1777902667.733058,-1184,-1389,966,-3,-1,-1,-0.578125,-0.678223,0.471680,-0.183105,-0.061035,-0.061035,21.44,0
2467344943,23836.139480,1777902667.734071,-1183,-1385,966,-3,-1,0,-0.577637,-0.676270,0.471680,-0.183105,-0.061035,0.000000,21.48,0
2467345953,23836.139486,1777902667.735077,-1183,-1383,968,-3,-1,-1,-0.577637,-0.675293,0.472656,-0.183105,-0.061035,-0.061035,21.51,1
2467346966,23836.139493,1777902667.736090,-1187,-1383,967,-3,-1,-2,-0.579590,-0.675293,0.472168,-0.183105,-0.061035,-0.122070,21.47,0
2467347977,23836.139499,1777902667.737101,-1188,-1385,967,-2,-1,-2,-0.580078,-0.676270,0.472168,-0.122070,-0.061035,-0.122070,21.41,0
2467348990,23836.139505,1777902667.738115,-1184,-1387,967,-2,-1,-1,-0.578125,-0.677246,0.472168,-0.122070,-0.061035,-0.061035,21.30,0
2467350003,23836.139511,1777902667.739128,-1181,-1387,967,-2,-1,-1,-0.576660,-0.677246,0.472168,-0.122070,-0.061035,-0.061035,21.35,0
2467351015,23836.147553,1777902667.740140,-1183,-1389,967,-2,-1,-1,-0.577637,-0.678223,0.472168,-0.122070,-0.061035,-0.061035,21.44,0
2467352027,23836.147572,1777902667.741153,-1184,-1389,966,-3,-1,-1,-0.578125,-0.678223,0.471680,-0.183105,-0.061035,-0.061035,21.38,0
2467353041,23836.147581,1777902667.742167,-1181,-1387,966,-3,-2,-1,-0.576660,-0.677246,0.471680,-0.183105,-0.122070,-0.061035,21.42,0
2467354051,23836.147590,1777902667.743177,-1182,-1388,967,-2,-2,-1,-0.577148,-0.677734,0.472168,-0.122070,-0.122070,-0.061035,21.44,0
2467355065,23836.147599,1777902667.744191,-1182,-1388,969,-2,-2,0,-0.577148,-0.677734,0.473145,-0.122070,-0.122070,0.000000,21.44,0
2467356076,23836.147609,1777902667.745203,-1184,-1387,968,-2,-2,0,-0.578125,-0.677246,0.472656,-0.122070,-0.122070,0.000000,21.48,0
2467357096,23836.147617,1777902667.746223,-1183,-1388,963,-2,-2,0,-0.577637,-0.677734,0.470215,-0.122070,-0.122070,0.000000,21.39,1
2467358101,23836.147624,1777902667.747228,-1178,-1388,963,-2,-2,0,-0.575195,-0.677734,0.470215,-0.122070,-0.122070,0.000000,21.36,0
2467359114,23836.155653,1777902667.748195,-1178,-1388,969,-3,-3,-1,-0.575195,-0.677734,0.473145,-0.183105,-0.183105,-0.061035,21.44,0
2467360126,23836.155685,1777902667.749205,-1181,-1389,970,-3,-2,-1,-0.576660,-0.678223,0.473633,-0.183105,-0.122070,-0.061035,21.44,0
2467361139,23836.155691,1777902667.750216,-1181,-1387,967,-3,-1,-1,-0.576660,-0.677246,0.472168,-0.183105,-0.061035,-0.061035,21.41,0
2467362149,23836.155698,1777902667.751225,-1183,-1386,964,-3,-1,-1,-0.577637,-0.676758,0.470703,-0.183105,-0.061035,-0.061035,21.39,0
2467363163,23836.155704,1777902667.752237,-1185,-1387,961,-3,-1,0,-0.578613,-0.677246,0.469238,-0.183105,-0.061035,0.000000,21.39,0
2467364173,23836.155710,1777902667.753245,-1184,-1387,961,-3,-1,-1,-0.578125,-0.677246,0.469238,-0.183105,-0.061035,-0.061035,21.50,0
2467365186,23836.155716,1777902667.754256,-1184,-1387,963,-3,-1,-1,-0.578125,-0.677246,0.470215,-0.183105,-0.061035,-0.061035,21.44,0
2467366198,23836.155722,1777902667.755266,-1183,-1387,965,-2,-1,-2,-0.577637,-0.677246,0.471191,-0.122070,-0.061035,-0.122070,21.38,0
2467367212,23836.163744,1777902667.756278,-1181,-1386,964,-2,-1,-2,-0.576660,-0.676758,0.470703,-0.122070,-0.061035,-0.122070,21.30,0
2467368224,23836.163763,1777902667.757307,-1181,-1385,964,-3,0,-1,-0.576660,-0.676270,0.470703,-0.183105,0.000000,-0.061035,21.47,1
2467369236,23836.163770,1777902667.758318,-1182,-1387,965,-3,0,1,-0.577148,-0.677246,0.471191,-0.183105,0.000000,0.061035,21.41,0
2467370247,23836.163777,1777902667.759328,-1181,-1391,967,-3,-1,0,-0.576660,-0.679199,0.472168,-0.183105,-0.061035,0.000000,21.24,0
2467371261,23836.163783,1777902667.760340,-1180,-1391,967,-3,-1,0,-0.576172,-0.679199,0.472168,-0.183105,-0.061035,0.000000,21.41,0
2467372272,23836.163789,1777902667.761350,-1183,-1390,967,-2,-2,0,-0.577637,-0.678711,0.472168,-0.122070,-0.122070,0.000000,21.47,0
2467373286,23836.163794,1777902667.762363,-1187,-1389,968,-1,-2,0,-0.579590,-0.678223,0.472656,-0.061035,-0.122070,0.000000,21.27,0
2467374298,23836.163800,1777902667.763374,-1187,-1389,972,-1,-1,-1,-0.579590,-0.678223,0.474609,-0.061035,-0.061035,-0.061035,21.39,0
2467375310,23836.171884,1777902667.764384,-1184,-1388,970,-1,-1,-1,-0.578125,-0.677734,0.473633,-0.061035,-0.061035,-0.061035,21.50,0
2467376321,23836.171910,1777902667.765394,-1183,-1386,966,-1,-2,-1,-0.577637,-0.676758,0.471680,-0.061035,-0.122070,-0.061035,21.36,0
2467377334,23836.171917,1777902667.766406,-1184,-1383,968,-2,-3,-2,-0.578125,-0.675293,0.472656,-0.122070,-0.183105,-0.122070,21.44,0
2467378346,23836.171924,1777902667.767416,-1185,-1383,972,-2,-3,-3,-0.578613,-0.675293,0.474609,-0.122070,-0.183105,-0.183105,21.39,0
2467379360,23836.171983,1777902667.768429,-1184,-1384,970,-2,-2,-1,-0.578125,-0.675781,0.473633,-0.122070,-0.122070,-0.061035,21.39,1
2467380372,23836.172008,1777902667.769440,-1180,-1384,966,-2,-2,-1,-0.576172,-0.675781,0.471680,-0.122070,-0.122070,-0.061035,21.39,0
2467381384,23836.172082,1777902667.770450,-1178,-1387,966,-3,-2,-1,-0.575195,-0.677246,0.471680,-0.183105,-0.122070,-0.061035,21.41,0
2467382395,23836.172088,1777902667.771460,-1178,-1386,967,-3,-2,-1,-0.575195,-0.676758,0.472168,-0.183105,-0.122070,-0.061035,21.38,0
2467383407,23836.179935,1777902667.772448,-1177,-1384,964,-2,-2,-1,-0.574707,-0.675781,0.470703,-0.122070,-0.122070,-0.061035,21.38,0
2467384420,23836.179952,1777902667.773459,-1177,-1388,965,-2,-2,-1,-0.574707,-0.677734,0.471191,-0.122070,-0.122070,-0.061035,21.45,0
2467385433,23836.179958,1777902667.774470,-1177,-1388,968,-4,-1,0,-0.574707,-0.677734,0.472656,-0.244141,-0.061035,0.000000,21.41,0
2467386444,23836.179965,1777902667.775479,-1180,-1390,967,-4,0,1,-0.576172,-0.678711,0.472168,-0.244141,0.000000,0.061035,21.38,0
2467387458,23836.179971,1777902667.776491,-1184,-1393,966,-3,0,0,-0.578125,-0.680176,0.471680,-0.183105,0.000000,0.000000,21.33,0
2467388469,23836.179977,1777902667.777499,-1184,-1392,966,-2,-1,1,-0.578125,-0.679688,0.471680,-0.122070,-0.061035,0.061035,21.44,0
2467389481,23836.179983,1777902667.778509,-1184,-1389,967,-2,-1,1,-0.578125,-0.678223,0.472168,-0.122070,-0.061035,0.061035,21.44,0
2467390492,23836.179989,1777902667.779518,-1184,-1389,969,-1,0,0,-0.578125,-0.678223,0.473145,-0.061035,0.000000,0.000000,21.44,1
2467391506,23836.188041,1777902667.780593,-1184,-1390,967,-2,0,0,-0.578125,-0.678711,0.472168,-0.122070,0.000000,0.000000,21.45,0
2467392517,23836.188065,1777902667.781603,-1185,-1389,964,-2,-1,0,-0.578613,-0.678223,0.470703,-0.122070,-0.061035,0.000000,21.44,0
2467393530,23836.188078,1777902667.782616,-1185,-1386,966,-2,-3,0,-0.578613,-0.676758,0.471680,-0.122070,-0.183105,0.000000,21.33,0
2467394541,23836.188088,1777902667.783626,-1187,-1386,968,-3,-3,-1,-0.579590,-0.676758,0.472656,-0.183105,-0.183105,-0.061035,21.41,0
2467395556,23836.188099,1777902667.784641,-1188,-1389,967,-3,-3,-1,-0.580078,-0.678223,0.472168,-0.183105,-0.183105,-0.061035,21.36,0
2467396568,23836.188109,1777902667.785652,-1184,-1391,967,-3,-2,-1,-0.578125,-0.679199,0.472168,-0.183105,-0.122070,-0.061035,21.24,0
2467397578,23836.188119,1777902667.786662,-1181,-1389,967,-3,-2,-1,-0.576660,-0.678223,0.472168,-0.183105,-0.122070,-0.061035,21.38,0
2467398593,23836.188129,1777902667.787676,-1184,-1386,964,-1,-2,-1,-0.578125,-0.676758,0.470703,-0.061035,-0.122070,-0.061035,21.38,0
2467399604,23836.196131,1777902667.788687,-1183,-1384,965,-1,-1,-1,-0.577637,-0.675781,0.471191,-0.061035,-0.061035,-0.061035,21.30,0
2467400615,23836.196150,1777902667.789697,-1178,-1384,968,-2,0,0,-0.575195,-0.675781,0.472656,-0.122070,0.000000,0.000000,21.50,0
2467401627,23836.196160,1777902667.790705,-1180,-1388,967,-3,-1,-1,-0.576172,-0.677734,0.472168,-0.183105,-0.061035,-0.061035,21.39,1
2467402642,23836.196172,1777902667.791719,-1183,-1391,967,-2,-2,-1,-0.577637,-0.679199,0.472168,-0.122070,-0.122070,-0.061035,21.35,0
2467403654,23836.196183,1777902667.792731,-1181,-1390,969,-2,-1,0,-0.576660,-0.678711,0.473145,-0.122070,-0.061035,0.000000,21.48,0
2467404665,23836.196193,1777902667.793741,-1180,-1388,967,-2,0,-1,-0.576172,-0.677734,0.472168,-0.122070,0.000000,-0.061035,21.47,0
2467405678,23836.196204,1777902667.794753,-1179,-1388,960,-3,0,-1,-0.575684,-0.677734,0.468750,-0.183105,0.000000,-0.061035,21.44,0
2467406690,23836.196214,1777902667.795765,-1180,-1387,960,-3,-1,-1,-0.576172,-0.677246,0.468750,-0.183105,-0.061035,-0.061035,21.50,0
2467407701,23836.204227,1777902667.796775,-1182,-1388,963,-3,-1,0,-0.577148,-0.677734,0.470215,-0.183105,-0.061035,0.000000,21.41,0
2467408715,23836.204245,1777902667.797789,-1183,-1387,964,-4,-1,-1,-0.577637,-0.677246,0.470703,-0.244141,-0.061035,-0.061035,21.39,0
2467409726,23836.204256,1777902667.798799,-1181,-1386,964,-3,-1,-1,-0.576660,-0.676758,0.470703,-0.183105,-0.061035,-0.061035,21.36,0
2467410740,23836.204266,1777902667.799812,-1180,-1389,965,-2,-2,-1,-0.576172,-0.678223,0.471191,-0.122070,-0.122070,-0.061035,21.35,0
2467411750,23836.204276,1777902667.800822,-1181,-1392,964,-2,-2,-1,-0.576660,-0.679688,0.470703,-0.122070,-0.122070,-0.061035,21.47,0
2467412762,23836.204287,1777902667.801833,-1184,-1389,964,-2,-2,-2,-0.578125,-0.678223,0.470703,-0.122070,-0.122070,-0.122070,21.53,1
2467413776,23836.204298,1777902667.802846,-1183,-1386,964,-2,-1,-1,-0.577637,-0.676758,0.470703,-0.122070,-0.061035,-0.061035,21.32,0
2467414788,23836.204308,1777902667.803858,-1180,-1388,966,-2,-2,-1,-0.576172,-0.677734,0.471680,-0.122070,-0.122070,-0.061035,21.39,0
2467415801,23836.212375,1777902667.804873,-1183,-1389,968,-4,-2,-2,-0.577637,-0.678223,0.472656,-0.244141,-0.122070,-0.122070,21.44,0
2467416812,23836.212394,1777902667.805883,-1183,-1387,968,-4,-2,-1,-0.577637,-0.677246,0.472656,-0.244141,-0.122070,-0.061035,21.45,0
2467417825,23836.212403,1777902667.806896,-1178,-1387,964,-3,-3,0,-0.575195,-0.677246,0.470703,-0.183105,-0.183105,0.000000,21.47,0
2467418836,23836.212414,1777902667.807906,-1180,-1389,964,-3,-3,0,-0.576172,-0.678223,0.470703,-0.183105,-0.183105,0.000000,21.38,0
2467419849,23836.212424,1777902667.808919,-1185,-1389,965,-4,-1,-1,-0.578613,-0.678223,0.471191,-0.244141,-0.061035,-0.061035,21.44,0
2467420863,23836.212435,1777902667.809932,-1183,-1387,962,-3,-1,0,-0.577637,-0.677246,0.469727,-0.183105,-0.061035,0.000000,21.38,0
2467421874,23836.212445,1777902667.810943,-1178,-1385,963,-2,-1,-1,-0.575195,-0.676270,0.470215,-0.122070,-0.061035,-0.061035,21.50,0
2467422886,23836.212456,1777902667.811954,-1179,-1385,964,-1,-1,-1,-0.575684,-0.676270,0.470703,-0.061035,-0.061035,-0.061035,21.24,0
2467423898,23836.220456,1777902667.812971,-1182,-1387,963,-2,-1,-1,-0.577148,-0.677246,0.470215,-0.122070,-0.061035,-0.061035,21.41,1
2467424911,23836.220473,1777902667.813984,-1185,-1388,963,-3,-1,-2,-0.578613,-0.677734,0.470215,-0.183105,-0.061035,-0.122070,21.47,0
2467425924,23836.220483,1777902667.814996,-1184,-1387,963,-4,-1,-1,-0.578125,-0.677246,0.470215,-0.244141,-0.061035,-0.061035,21.32,0
2467426934,23836.220493,1777902667.816006,-1183,-1387,961,-4,-1,0,-0.577637,-0.677246,0.469238,-0.244141,-0.061035,0.000000,21.44,0
2467427948,23836.220504,1777902667.817019,-1182,-1387,961,-3,-1,0,-0.577148,-0.677246,0.469238,-0.183105,-0.061035,0.000000,21.45,0
2467428959,23836.220514,1777902667.818030,-1181,-1388,964,-1,-1,-1,-0.576660,-0.677734,0.470703,-0.061035,-0.061035,-0.061035,21.47,0
2467429971,23836.220525,1777902667.819041,-1181,-1389,964,-2,-1,-1,-0.576660,-0.678223,0.470703,-0.122070,-0.061035,-0.061035,21.41,0
2467430984,23836.220535,1777902667.820054,-1184,-1391,963,-2,-1,-1,-0.578125,-0.679199,0.470215,-0.122070,-0.061035,-0.061035,21.39,0
2467431997,23836.228511,1777902667.821067,-1186,-1388,966,-2,-1,-1,-0.579102,-0.677734,0.471680,-0.122070,-0.061035,-0.061035,21.44,0
2467433009,23836.228530,1777902667.822078,-1184,-1388,966,-2,-1,0,-0.578125,-0.677734,0.471680,-0.122070,-0.061035,0.000000,21.44,0
2467434021,23836.228541,1777902667.823090,-1182,-1391,965,-3,-2,-1,-0.577148,-0.679199,0.471191,-0.183105,-0.122070,-0.061035,21.38,0
2467435034,23836.228551,1777902667.824100,-1182,-1392,966,-2,-2,-2,-0.577148,-0.679688,0.471680,-0.122070,-0.122070,-0.122070,21.44,1
2467436046,23836.228562,1777902667.825112,-1180,-1391,963,-2,-1,-1,-0.576172,-0.679199,0.470215,-0.122070,-0.061035,-0.061035,21.41,0
2467437058,23836.228572,1777902667.826123,-1178,-1387,962,-3,-2,-1,-0.575195,-0.677246,0.469727,-0.183105,-0.122070,-0.061035,21.47,0
2467438070,23836.228583,1777902667.827135,-1180,-1385,963,-3,-2,-1,-0.576172,-0.676270,0.470215,-0.183105,-0.122070,-0.061035,21.42,0
2467439094,23836.228594,1777902667.828158,-1180,-1385,963,-3,-2,0,-0.576172,-0.676270,0.470215,-0.183105,-0.122070,0.000000,21.50,0
2467440098,23836.236598,1777902667.829162,-1179,-1385,964,-2,-1,0,-0.575684,-0.676270,0.470703,-0.122070,-0.061035,0.000000,21.44,0
2467441108,23836.236612,1777902667.830171,-1182,-1387,966,-2,-2,-1,-0.577148,-0.677246,0.471680,-0.122070,-0.122070,-0.061035,21.47,0
2467442120,23836.236666,1777902667.831183,-1185,-1388,966,-3,-2,-2,-0.578613,-0.677734,0.471680,-0.183105,-0.122070,-0.122070,21.41,0
2467443130,23836.236677,1777902667.832192,-1183,-1388,964,-3,-1,-2,-0.577637,-0.677734,0.470703,-0.183105,-0.061035,-0.122070,21.48,0
2467444144,23836.236687,1777902667.833206,-1180,-1389,966,-2,-1,-1,-0.576172,-0.678223,0.471680,-0.122070,-0.061035,-0.061035,21.47,0
2467445156,23836.236697,1777902667.834218,-1182,-1389,965,-2,0,0,-0.577148,-0.678223,0.471191,-0.122070,0.000000,0.000000,21.44,0
2467446167,23836.236707,1777902667.835228,-1183,-1390,964,-3,0,0,-0.577637,-0.678711,0.470703,-0.183105,0.000000,0.000000,21.26,1
2467447180,23836.236718,1777902667.836241,-1182,-1388,966,-3,-1,-1,-0.577148,-0.677734,0.471680,-0.183105,-0.061035,-0.061035,21.50,0
2467448193,23836.244728,1777902667.837237,-1183,-1385,966,-2,-2,-2,-0.577637,-0.676270,0.471680,-0.122070,-0.122070,-0.122070,21.41,0
2467449205,23836.244750,1777902667.838248,-1183,-1387,964,-2,-2,-2,-0.577637,-0.677246,0.470703,-0.122070,-0.122070,-0.122070,21.35,0
2467450216,23836.244761,1777902667.839259,-1181,-1388,964,-2,-1,-1,-0.576660,-0.677734,0.470703,-0.122070,-0.061035,-0.061035,21.41,0
2467451230,23836.244771,1777902667.840272,-1179,-1388,965,-3,-2,-1,-0.575684,-0.677734,0.471191,-0.183105,-0.122070,-0.061035,21.44,0
2467452242,23836.244782,1777902667.841283,-1180,-1388,966,-4,-3,-1,-0.576172,-0.677734,0.471680,-0.244141,-0.183105,-0.061035,21.44,0
2467453253,23836.244792,1777902667.842294,-1182,-1387,967,-3,-3,-1,-0.577148,-0.677246,0.472168,-0.183105,-0.183105,-0.061035,21.45,0
2467454267,23836.244803,1777902667.843307,-1181,-1386,969,-3,-2,0,-0.576660,-0.676758,0.473145,-0.183105,-0.122070,0.000000,21.38,0
2467455278,23836.244813,1777902667.844317,-1180,-1387,969,-2,-2,0,-0.576172,-0.677246,0.473145,-0.122070,-0.122070,0.000000,21.44,0
2467456289,23836.252846,1777902667.845328,-1180,-1388,966,-2,-1,0,-0.576172,-0.677734,0.471680,-0.122070,-0.061035,0.000000,21.38,0
2467457303,23836.252861,1777902667.846336,-1181,-1387,965,-2,-1,-1,-0.576660,-0.677246,0.471191,-0.122070,-0.061035,-0.061035,21.35,1
2467458317,23836.252872,1777902667.847349,-1182,-1388,970,-3,-1,0,-0.577148,-0.677734,0.473633,-0.183105,-0.061035,0.000000,21.47,0
2467459326,23836.252883,1777902667.848357,-1181,-1390,971,-3,-2,-1,-0.576660,-0.678711,0.474121,-0.183105,-0.122070,-0.061035,21.41,0
2467460339,23836.252893,1777902667.849370,-1181,-1388,967,-3,-2,-1,-0.576660,-0.677734,0.472168,-0.183105,-0.122070,-0.061035,21.42,0
2467461353,23836.252903,1777902667.850383,-1182,-1388,966,-3,-1,-1,-0.577148,-0.677734,0.471680,-0.183105,-0.061035,-0.061035,21.42,0
2467462364,23836.252914,1777902667.851393,-1182,-1386,967,-3,-1,-1,-0.577148,-0.676758,0.472168,-0.183105,-0.061035,-0.061035,21.45,0
2467463376,23836.252924,1777902667.852404,-1182,-1385,966,-2,-3,-1,-0.577148,-0.676270,0.471680,-0.122070,-0.183105,-0.061035,21.41,0
2467464389,23836.260904,1777902667.853416,-1180,-1389,968,-2,-3,-1,-0.576172,-0.678223,0.472656,-0.122070,-0.183105,-0.061035,21.42,0
2467465400,23836.260926,1777902667.854427,-1180,-1389,967,-2,-1,-1,-0.576172,-0.678223,0.472168,-0.122070,-0.061035,-0.061035,21.47,0
2467466412,23836.260937,1777902667.855438,-1183,-1383,965,-2,-1,-1,-0.577637,-0.675293,0.471191,-0.122070,-0.061035,-0.061035,21.44,0
2467467426,23836.260948,1777902667.856451,-1185,-1384,965,-2,-2,0,-0.578613,-0.675781,0.471191,-0.122070,-0.122070,0.000000,21.41,0
2467468438,23836.260958,1777902667.857462,-1184,-1390,966,-2,-1,-1,-0.578125,-0.678711,0.471680,-0.122070,-0.061035,-0.061035,21.47,1
2467469451,23836.260970,1777902667.858474,-1181,-1389,967,-2,-2,-2,-0.576660,-0.678223,0.472168,-0.122070,-0.122070,-0.122070,21.44,0
2467470462,23836.260980,1777902667.859485,-1181,-1384,967,-2,-3,-2,-0.576660,-0.675781,0.472168,-0.122070,-0.183105,-0.122070,21.44,0
2467471475,23836.260990,1777902667.860497,-1183,-1384,966,-1,-3,0,-0.577637,-0.675781,0.471680,-0.061035,-0.183105,0.000000,21.50,0
2467472486,23836.270109,1777902667.861527,-1184,-1388,968,-1,-2,-1,-0.578125,-0.677734,0.472656,-0.061035,-0.122070,-0.061035,21.41,0
2467473498,23836.270123,1777902667.862539,-1181,-1387,970,-2,-2,-1,-0.576660,-0.677246,0.473633,-0.122070,-0.122070,-0.061035,21.48,0
2467474510,23836.270134,1777902667.863550,-1178,-1384,967,-2,-3,-1,-0.575195,-0.675781,0.472168,-0.122070,-0.183105,-0.061035,21.45,0
2467475523,23836.270145,1777902667.864563,-1177,-1386,964,-1,-3,-1,-0.574707,-0.676758,0.470703,-0.061035,-0.183105,-0.061035,21.47,0
2467476535,23836.270155,1777902667.865575,-1180,-1387,965,-1,-2,0,-0.576172,-0.677246,0.471191,-0.061035,-0.122070,0.000000,21.44,0
2467477548,23836.270166,1777902667.866587,-1181,-1387,966,-2,-1,0,-0.576660,-0.677246,0.471680,-0.122070,-0.061035,0.000000,21.30,0
2467478560,23836.270176,1777902667.867599,-1182,-1386,967,-2,-2,-1,-0.577148,-0.676758,0.472168,-0.122070,-0.122070,-0.061035,21.39,0
2467479573,23836.270187,1777902667.868611,-1184,-1385,969,-2,-1,-1,-0.578125,-0.676270,0.473145,-0.122070,-0.061035,-0.061035,21.47,1
2467480586,23836.277097,1777902667.869609,-1182,-1387,966,-3,-1,-1,-0.577148,-0.677246,0.471680,-0.183105,-0.061035,-0.061035,21.41,0
2467481597,23836.277111,1777902667.870620,-1182,-1389,964,-3,-2,-1,-0.577148,-0.678223,0.470703,-0.183105,-0.122070,-0.061035,21.35,0
2467482608,23836.277122,1777902667.871630,-1182,-1386,969,-2,-1,-1,-0.577148,-0.676758,0.473145,-0.122070,-0.061035,-0.061035,21.32,0
2467483623,23836.277132,1777902667.872644,-1178,-1384,968,-2,-1,-1,-0.575195,-0.675781,0.472656,-0.122070,-0.061035,-0.061035,21.41,0
2467484632,23836.277143,1777902667.873653,-1178,-1386,965,-2,-2,-1,-0.575195,-0.676758,0.471191,-0.122070,-0.122070,-0.061035,21.38,0
2467485645,23836.277153,1777902667.874665,-1182,-1388,965,-2,-2,-1,-0.577148,-0.677734,0.471191,-0.122070,-0.122070,-0.061035,21.47,0
2467486659,23836.277164,1777902667.875679,-1181,-1391,967,-2,-2,-1,-0.576660,-0.679199,0.472168,-0.122070,-0.122070,-0.061035,21.53,0
2467487670,23836.277174,1777902667.876689,-1178,-1392,969,-2,-2,0,-0.575195,-0.679688,0.473145,-0.122070,-0.122070,0.000000,21.32,0
2467488682,23836.285205,1777902667.877700,-1178,-1389,966,-3,-3,-1,-0.575195,-0.678223,0.471680,-0.183105,-0.183105,-0.061035,21.50,0
2467489696,23836.285224,1777902667.878713,-1182,-1384,963,-3,-2,-1,-0.577148,-0.675781,0.470215,-0.183105,-0.122070,-0.061035,21.39,0
2467490707,23836.285236,1777902667.879727,-1182,-1384,966,-3,-1,-1,-0.577148,-0.675781,0.471680,-0.183105,-0.061035,-0.061035,21.36,1
2467491719,23836.285247,1777902667.880738,-1178,-1387,968,-3,-1,0,-0.575195,-0.677246,0.472656,-0.183105,-0.061035,0.000000,21.44,0
2467492733,23836.285257,1777902667.881752,-1177,-1391,966,-3,-2,-1,-0.574707,-0.679199,0.471680,-0.183105,-0.122070,-0.061035,21.41,0
2467493745,23836.285267,1777902667.882763,-1183,-1391,966,-3,-2,-2,-0.577637,-0.679199,0.471680,-0.183105,-0.122070,-0.122070,21.35,0
2467494756,23836.285277,1777902667.883773,-1183,-1387,966,-3,-2,-1,-0.577637,-0.677246,0.471680,-0.183105,-0.122070,-0.061035,21.42,0
2467495768,23836.285288,1777902667.884785,-1181,-1388,961,-3,-3,-1,-0.576660,-0.677734,0.469238,-0.183105,-0.183105,-0.061035,21.41,0
2467496781,23836.293366,1777902667.885797,-1182,-1389,961,-3,-3,-1,-0.577148,-0.678223,0.469238,-0.183105,-0.183105,-0.061035,21.42,0
2467497792,23836.293381,1777902667.886807,-1183,-1388,963,-2,-2,-2,-0.577637,-0.677734,0.470215,-0.122070,-0.122070,-0.122070,21.53,0
2467498804,23836.293392,1777902667.887819,-1184,-1388,962,-2,-1,-2,-0.578125,-0.677734,0.469727,-0.122070,-0.061035,-0.122070,21.51,0
2467499816,23836.293403,1777902667.888830,-1185,-1388,964,-3,-1,0,-0.578613,-0.677734,0.470703,-0.183105,-0.061035,0.000000,21.39,0
2467500830,23836.293413,1777902667.889844,-1183,-1388,969,-3,0,0,-0.577637,-0.677734,0.473145,-0.183105,0.000000,0.000000,21.29,0
2467501841,23836.293424,1777902667.890854,-1181,-1389,967,-3,-1,-1,-0.576660,-0.678223,0.472168,-0.183105,-0.061035,-0.061035,21.29,1
2467502854,23836.293435,1777902667.891866,-1182,-1389,961,-3,-1,-1,-0.577148,-0.678223,0.469238,-0.183105,-0.061035,-0.061035,21.44,0
2467503867,23836.293484,1777902667.892879,-1186,-1388,963,-2,-1,0,-0.579102,-0.677734,0.470215,-0.122070,-0.061035,0.000000,21.41,0
2467504879,23836.301432,1777902667.893888,-1186,-1386,968,-1,-1,-1,-0.579102,-0.676758,0.472656,-0.061035,-0.061035,-0.061035,21.41,0
2467505892,23836.301453,1777902667.894901,-1181,-1389,965,-3,-1,-1,-0.576660,-0.678223,0.471191,-0.183105,-0.061035,-0.061035,21.50,0
2467506902,23836.301464,1777902667.895910,-1180,-1392,962,-4,-1,-1,-0.576172,-0.679688,0.469727,-0.244141,-0.061035,-0.061035,21.30,0
2467507917,23836.301475,1777902667.896924,-1181,-1389,965,-2,-2,-1,-0.576660,-0.678223,0.471191,-0.122070,-0.122070,-0.061035,21.38,0
2467508928,23836.301485,1777902667.897935,-1185,-1386,964,-1,-1,-1,-0.578613,-0.676758,0.470703,-0.061035,-0.061035,-0.061035,21.38,0
2467509940,23836.301496,1777902667.898946,-1184,-1388,963,-3,-1,-1,-0.578125,-0.677734,0.470215,-0.183105,-0.061035,-0.061035,21.35,0
2467510951,23836.301507,1777902667.899956,-1180,-1391,966,-3,-1,0,-0.576172,-0.679199,0.471680,-0.183105,-0.061035,0.000000,21.38,0
2467511965,23836.301518,1777902667.900970,-1180,-1390,968,-2,-1,0,-0.576172,-0.678711,0.472656,-0.122070,-0.061035,0.000000,21.47,0
2467512978,23836.309511,1777902667.901972,-1183,-1387,963,-2,0,-1,-0.577637,-0.677246,0.470215,-0.122070,0.000000,-0.061035,21.39,1
2467513990,23836.309527,1777902667.902983,-1182,-1386,959,-4,-1,-1,-0.577148,-0.676758,0.468262,-0.244141,-0.061035,-0.061035,21.44,0
2467515003,23836.309538,1777902667.903995,-1180,-1384,963,-4,-2,0,-0.576172,-0.675781,0.470215,-0.244141,-0.122070,0.000000,21.41,0
2467516012,23836.309549,1777902667.905003,-1181,-1384,964,-2,-1,-1,-0.576660,-0.675781,0.470703,-0.122070,-0.061035,-0.061035,21.33,0
2467517025,23836.309560,1777902667.906016,-1183,-1385,964,-2,-1,-1,-0.577637,-0.676270,0.470703,-0.122070,-0.061035,-0.061035,21.29,0
2467518037,23836.309570,1777902667.907027,-1181,-1385,967,-2,-1,0,-0.576660,-0.676270,0.472168,-0.122070,-0.061035,0.000000,21.35,0
2467519052,23836.309581,1777902667.908041,-1180,-1387,968,-2,-2,0,-0.576172,-0.677246,0.472656,-0.122070,-0.122070,0.000000,21.44,0
2467520063,23836.309592,1777902667.909051,-1182,-1390,966,-3,-2,-1,-0.577148,-0.678711,0.471680,-0.183105,-0.122070,-0.061035,21.39,0
2467521076,23836.317600,1777902667.910064,-1185,-1388,967,-3,-1,-1,-0.578613,-0.677734,0.472168,-0.183105,-0.061035,-0.061035,21.39,0
2467522096,23836.317616,1777902667.911083,-1186,-1388,967,-2,-2,-1,-0.579102,-0.677734,0.472168,-0.122070,-0.122070,-0.061035,21.36,0
2467523102,23836.317627,1777902667.912088,-1184,-1387,963,-1,-2,-1,-0.578125,-0.677246,0.470215,-0.061035,-0.122070,-0.061035,21.26,0
2467524113,23836.317638,1777902667.913096,-1181,-1386,961,-2,-2,-1,-0.576660,-0.676758,0.469238,-0.122070,-0.122070,-0.061035,21.39,1
2467525125,23836.317649,1777902667.914107,-1181,-1387,962,-2,-1,-2,-0.576660,-0.677246,0.469727,-0.122070,-0.061035,-0.122070,21.41,0
2467526136,23836.317659,1777902667.915117,-1182,-1388,963,-2,-1,-1,-0.577148,-0.677734,0.470215,-0.122070,-0.061035,-0.061035,21.30,0
2467527147,23836.317670,1777902667.916127,-1181,-1385,967,-2,-1,-1,-0.576660,-0.676270,0.472168,-0.122070,-0.061035,-0.061035,21.47,0
2467528161,23836.317681,1777902667.917140,-1179,-1383,967,-2,0,-1,-0.575684,-0.675293,0.472168,-0.122070,0.000000,-0.061035,21.29,0
2467529172,23836.325680,1777902667.918151,-1179,-1388,964,-1,0,-1,-0.575684,-0.677734,0.470703,-0.061035,0.000000,-0.061035,21.41,0
2467530185,23836.325696,1777902667.919163,-1178,-1389,964,-1,0,-1,-0.575195,-0.678223,0.470703,-0.061035,0.000000,-0.061035,21.51,0
2467531199,23836.325706,1777902667.920176,-1179,-1386,965,-3,-1,-1,-0.575684,-0.676758,0.471191,-0.183105,-0.061035,-0.061035,21.41,0
2467532211,23836.325717,1777902667.921187,-1180,-1387,969,-3,-2,-1,-0.576172,-0.677246,0.473145,-0.183105,-0.122070,-0.061035,21.38,0
2467533222,23836.325727,1777902667.922198,-1180,-1387,971,-3,-2,0,-0.576172,-0.677246,0.474121,-0.183105,-0.122070,0.000000,21.44,0
2467534236,23836.325738,1777902667.923211,-1181,-1388,965,-2,-1,0,-0.576660,-0.677734,0.471191,-0.122070,-0.061035,0.000000,21.44,0
2467535246,23836.325748,1777902667.924220,-1184,-1387,964,-2,-1,-1,-0.578125,-0.677246,0.470703,-0.122070,-0.061035,-0.061035,21.30,1
2467536259,23836.325759,1777902667.925232,-1185,-1387,970,-2,-2,-1,-0.578613,-0.677246,0.473633,-0.122070,-0.122070,-0.061035,21.44,0
2467537272,23836.333796,1777902667.926240,-1180,-1389,969,-2,-1,-1,-0.576172,-0.678223,0.473145,-0.122070,-0.061035,-0.061035,21.44,0
2467538285,23836.333817,1777902667.927252,-1176,-1389,966,-3,-1,-1,-0.574219,-0.678223,0.471680,-0.183105,-0.061035,-0.061035,21.42,0
2467539297,23836.333828,1777902667.928263,-1180,-1391,967,-3,-2,-1,-0.576172,-0.679199,0.472168,-0.183105,-0.122070,-0.061035,21.38,0
2467540308,23836.333839,1777902667.929274,-1184,-1389,967,-3,-2,0,-0.578125,-0.678223,0.472168,-0.183105,-0.122070,0.000000,21.41,0
2467541321,23836.333849,1777902667.930286,-1181,-1384,965,-4,-2,0,-0.576660,-0.675781,0.471191,-0.244141,-0.122070,0.000000,21.38,0
2467542334,23836.333860,1777902667.931298,-1179,-1386,963,-4,-2,0,-0.575684,-0.676758,0.470215,-0.244141,-0.122070,0.000000,21.45,0
2467543345,23836.333870,1777902667.932308,-1180,-1387,962,-2,-2,-1,-0.576172,-0.677246,0.469727,-0.122070,-0.122070,-0.061035,21.50,0
2467544358,23836.333881,1777902667.933320,-1182,-1385,965,-2,-2,-1,-0.577148,-0.676270,0.471191,-0.122070,-0.122070,-0.061035,21.44,0
2467545370,23836.341893,1777902667.934331,-1184,-1385,968,-2,-2,-1,-0.578125,-0.676270,0.472656,-0.122070,-0.122070,-0.061035,21.54,0
2467546380,23836.341914,1777902667.935351,-1188,-1386,966,-2,-1,-1,-0.580078,-0.676758,0.471680,-0.122070,-0.061035,-0.061035,21.42,1
2467547394,23836.341925,1777902667.936365,-1186,-1387,964,-2,-2,-1,-0.579102,-0.677246,0.470703,-0.122070,-0.122070,-0.061035,21.47,0
2467548407,23836.341936,1777902667.937377,-1181,-1385,966,-3,-2,0,-0.576660,-0.676270,0.471680,-0.183105,-0.122070,0.000000,21.39,0
2467549419,23836.341946,1777902667.938388,-1184,-1386,968,-3,-2,-1,-0.578125,-0.676758,0.472656,-0.183105,-0.122070,-0.061035,21.53,0
2467550431,23836.341957,1777902667.939399,-1187,-1389,968,-2,-2,-1,-0.579590,-0.678223,0.472656,-0.122070,-0.122070,-0.061035,21.39,0
2467551444,23836.341968,1777902667.940412,-1183,-1387,966,-2,-2,-1,-0.577637,-0.677246,0.471680,-0.122070,-0.122070,-0.061035,21.41,0
2467552456,23836.341978,1777902667.941423,-1178,-1385,963,-2,-2,1,-0.575195,-0.676270,0.470215,-0.122070,-0.122070,0.061035,21.48,0
2467553468,23836.349993,1777902667.942434,-1179,-1385,962,-2,-2,0,-0.575684,-0.676270,0.469727,-0.122070,-0.122070,0.000000,21.47,0
2467554480,23836.350020,1777902667.943445,-1180,-1384,967,-3,-1,-1,-0.576172,-0.675781,0.472168,-0.183105,-0.061035,-0.061035,21.41,0
2467555492,23836.350032,1777902667.944457,-1180,-1384,970,-3,-2,-2,-0.576172,-0.675781,0.473633,-0.183105,-0.122070,-0.122070,21.44,0
2467556503,23836.350042,1777902667.945467,-1181,-1385,966,-1,-3,-2,-0.576660,-0.676270,0.471680,-0.061035,-0.183105,-0.122070,21.50,0
2467557518,23836.350053,1777902667.946481,-1181,-1387,964,-2,-3,-1,-0.576660,-0.677246,0.470703,-0.122070,-0.183105,-0.061035,21.47,1
2467558530,23836.350065,1777902667.947492,-1182,-1386,963,-3,-2,0,-0.577148,-0.676758,0.470215,-0.183105,-0.122070,0.000000,21.44,0
2467559541,23836.350075,1777902667.948503,-1184,-1385,964,-3,-1,-1,-0.578125,-0.676270,0.470703,-0.183105,-0.061035,-0.061035,21.39,0
2467560553,23836.350085,1777902667.949514,-1186,-1386,965,-3,-1,-1,-0.579102,-0.676758,0.471191,-0.183105,-0.061035,-0.061035,21.47,0
2467561565,23836.358084,1777902667.950521,-1184,-1386,966,-2,-1,-2,-0.578125,-0.676758,0.471680,-0.122070,-0.061035,-0.122070,21.38,0
2467562579,23836.358099,1777902667.951534,-1180,-1386,967,-1,0,-1,-0.576172,-0.676758,0.472168,-0.061035,0.000000,-0.061035,21.44,0
2467563590,23836.358110,1777902667.952544,-1179,-1387,966,-3,0,-1,-0.575684,-0.677246,0.471680,-0.183105,0.000000,-0.061035,21.44,0
2467564601,23836.358120,1777902667.953554,-1181,-1388,968,-2,-1,-1,-0.576660,-0.677734,0.472656,-0.122070,-0.061035,-0.061035,21.41,0
2467565614,23836.358131,1777902667.954566,-1180,-1391,969,-2,-2,0,-0.576172,-0.679199,0.473145,-0.122070,-0.122070,0.000000,21.50,0
2467566625,23836.358183,1777902667.955576,-1179,-1389,966,-3,-1,0,-0.575684,-0.678223,0.471680,-0.183105,-0.061035,0.000000,21.44,0
2467567639,23836.358194,1777902667.956590,-1183,-1384,964,-3,-1,-1,-0.577637,-0.675781,0.470703,-0.183105,-0.061035,-0.061035,21.44,0
2467568652,23836.358204,1777902667.957602,-1184,-1384,962,-2,-1,-1,-0.578125,-0.675781,0.469727,-0.122070,-0.061035,-0.061035,21.47,1
2467569663,23836.366161,1777902667.958617,-1183,-1387,963,-3,-3,-1,-0.577637,-0.677246,0.470215,-0.183105,-0.183105,-0.061035,21.41,0
2467570677,23836.366177,1777902667.959631,-1181,-1388,967,-3,-3,-1,-0.576660,-0.677734,0.472168,-0.183105,-0.183105,-0.061035,21.35,0
2467571689,23836.366188,1777902667.960642,-1181,-1387,965,-2,-3,0,-0.576660,-0.677246,0.471191,-0.122070,-0.183105,0.000000,21.42,0
2467572700,23836.366199,1777902667.961652,-1185,-1387,963,-2,-2,0,-0.578613,-0.677246,0.470215,-0.122070,-0.122070,0.000000,21.47,0
2467573714,23836.366209,1777902667.962666,-1187,-1386,964,-3,-2,0,-0.579590,-0.676758,0.470703,-0.183105,-0.122070,0.000000,21.42,0
2467574726,23836.366220,1777902667.963677,-1186,-1386,965,-3,-1,0,-0.579102,-0.676758,0.471191,-0.183105,-0.061035,0.000000,21.53,0
2467575737,23836.366230,1777902667.964687,-1185,-1385,967,-2,-1,-1,-0.578613,-0.676270,0.472168,-0.122070,-0.061035,-0.061035,21.38,0
2467576750,23836.366240,1777902667.965699,-1183,-1383,966,-2,-2,-1,-0.577637,-0.675293,0.471680,-0.122070,-0.122070,-0.061035,21.39,0
2467577760,23836.374594,1777902667.966708,-1181,-1384,962,-2,-2,0,-0.576660,-0.675781,0.469727,-0.122070,-0.122070,0.000000,21.53,0
2467578774,23836.374622,1777902667.967722,-1182,-1386,961,-3,-2,0,-0.577148,-0.676758,0.469238,-0.183105,-0.122070,0.000000,21.41,0
2467579785,23836.374633,1777902667.968732,-1182,-1386,963,-2,-2,-1,-0.577148,-0.676758,0.470215,-0.122070,-0.122070,-0.061035,21.44,1
2467580799,23836.374645,1777902667.969745,-1183,-1385,964,-1,-2,-2,-0.577637,-0.676270,0.470703,-0.061035,-0.122070,-0.122070,21.41,0
2467581810,23836.374655,1777902667.970755,-1185,-1386,962,-1,-1,-1,-0.578613,-0.676758,0.469727,-0.061035,-0.061035,-0.061035,21.41,0
2467582823,23836.374666,1777902667.971767,-1182,-1386,964,-1,-1,-1,-0.577148,-0.676758,0.470703,-0.061035,-0.061035,-0.061035,21.39,0
2467583836,23836.374676,1777902667.972780,-1179,-1387,968,-2,-2,-1,-0.575684,-0.677246,0.472656,-0.122070,-0.122070,-0.061035,21.41,0
2467584849,23836.374686,1777902667.973792,-1183,-1389,969,-2,-2,-2,-0.577637,-0.678223,0.473145,-0.122070,-0.122070,-0.122070,21.36,0
2467585860,23836.382370,1777902667.974802,-1184,-1387,967,-2,-1,-1,-0.578125,-0.677246,0.472168,-0.122070,-0.061035,-0.061035,21.47,0
2467586871,23836.382386,1777902667.975812,-1182,-1383,967,-2,-2,-1,-0.577148,-0.675293,0.472168,-0.122070,-0.122070,-0.061035,21.44,0
2467587883,23836.382397,1777902667.976824,-1181,-1384,968,-3,-2,0,-0.576660,-0.675781,0.472656,-0.183105,-0.122070,0.000000,21.50,0
2467588897,23836.382407,1777902667.977837,-1182,-1386,965,-3,-2,0,-0.577148,-0.676758,0.471191,-0.183105,-0.122070,0.000000,21.38,0
2467589909,23836.382417,1777902667.978848,-1183,-1384,965,-3,-1,0,-0.577637,-0.675781,0.471191,-0.183105,-0.061035,0.000000,21.44,0
2467590922,23836.382427,1777902667.979860,-1183,-1384,966,-3,-2,0,-0.577637,-0.675781,0.471680,-0.183105,-0.122070,0.000000,21.38,1
2467591934,23836.382439,1777902667.980872,-1182,-1386,967,-4,-2,-1,-0.577148,-0.676758,0.472168,-0.244141,-0.122070,-0.061035,21.29,0
2467592945,23836.382449,1777902667.981882,-1181,-1389,970,-3,-2,-1,-0.576660,-0.678223,0.473633,-0.183105,-0.122070,-0.061035,21.47,0
2467593957,23836.390462,1777902667.982899,-1182,-1390,969,-2,-1,-1,-0.577148,-0.678711,0.473145,-0.122070,-0.061035,-0.061035,21.42,0
2467594971,23836.390477,1777902667.983912,-1183,-1390,966,-2,-1,-1,-0.577637,-0.678711,0.471680,-0.122070,-0.061035,-0.061035,21.47,0
2467595984,23836.390488,1777902667.984925,-1182,-1389,966,-3,-1,-1,-0.577148,-0.678223,0.471680,-0.183105,-0.061035,-0.061035,21.44,0
2467596995,23836.390498,1777902667.985935,-1184,-1389,968,-3,-2,-1,-0.578125,-0.678223,0.472656,-0.183105,-0.122070,-0.061035,21.41,0
2467598008,23836.390509,1777902667.986947,-1183,-1388,965,-3,-1,-1,-0.577637,-0.677734,0.471191,-0.183105,-0.061035,-0.061035,21.47,0
2467599021,23836.390519,1777902667.987959,-1184,-1390,965,-3,-1,-2,-0.578125,-0.678711,0.471191,-0.183105,-0.061035,-0.122070,21.44,0
2467600031,23836.390530,1777902667.988969,-1184,-1391,966,-3,-2,-1,-0.578125,-0.679199,0.471680,-0.183105,-0.122070,-0.061035,21.24,0
2467601044,23836.390540,1777902667.989981,-1181,-1388,965,-2,-1,-1,-0.576660,-0.677734,0.471191,-0.122070,-0.061035,-0.061035,21.44,0
2467602056,23836.398612,1777902667.990993,-1178,-1387,966,-2,-1,-1,-0.575195,-0.677246,0.471680,-0.122070,-0.061035,-0.061035,21.44,1
2467603070,23836.398630,1777902667.992006,-1178,-1386,969,-3,-2,-2,-0.575195,-0.676758,0.473145,-0.183105,-0.122070,-0.122070,21.47,0
2467604079,23836.398641,1777902667.993015,-1182,-1385,969,-3,-3,-1,-0.577148,-0.676270,0.473145,-0.183105,-0.183105,-0.061035,21.44,0
2467605099,23836.398651,1777902667.994034,-1184,-1387,965,-3,-2,-2,-0.578125,-0.677246,0.471191,-0.183105,-0.122070,-0.122070,21.41,0
2467606105,23836.398662,1777902667.995039,-1183,-1388,962,-3,-2,-2,-0.577637,-0.677734,0.469727,-0.183105,-0.122070,-0.122070,21.36,0
2467607118,23836.398672,1777902667.996052,-1185,-1389,964,-3,-1,-1,-0.578613,-0.678223,0.470703,-0.183105,-0.061035,-0.061035,21.48,0
2467608130,23836.398682,1777902667.997063,-1185,-1391,965,-2,-1,-1,-0.578613,-0.679199,0.471191,-0.122070,-0.061035,-0.061035,21.53,0
2467609142,23836.398693,1777902667.998074,-1181,-1388,964,-3,-1,-1,-0.576660,-0.677734,0.470703,-0.183105,-0.061035,-0.061035,21.41,0
2467610155,23836.406959,1777902667.999086,-1177,-1386,966,-3,-1,-2,-0.574707,-0.676758,0.471680,-0.183105,-0.061035,-0.122070,21.41,0
2467611167,23836.406979,1777902668.000098,-1182,-1388,967,-2,-2,-1,-0.577148,-0.677734,0.472168,-0.122070,-0.122070,-0.061035,21.39,0
2467612179,23836.406990,1777902668.001109,-1188,-1390,964,-1,-2,-1,-0.580078,-0.678711,0.470703,-0.061035,-0.122070,-0.061035,21.35,0
2467613191,23836.407005,1777902668.002120,-1184,-1390,965,-3,-1,-2,-0.578125,-0.678711,0.471191,-0.183105,-0.061035,-0.122070,21.41,1
2467614202,23836.407018,1777902668.003130,-1180,-1387,965,-3,-1,-2,-0.576172,-0.677246,0.471191,-0.183105,-0.061035,-0.122070,21.51,0
2467615216,23836.407029,1777902668.004143,-1181,-1384,964,-3,-1,0,-0.576660,-0.675781,0.470703,-0.183105,-0.061035,0.000000,21.29,0
2467616227,23836.407039,1777902668.005153,-1179,-1386,964,-2,-1,-1,-0.575684,-0.676758,0.470703,-0.122070,-0.061035,-0.061035,21.44,0
2467617241,23836.407050,1777902668.006167,-1179,-1389,965,-2,-1,-2,-0.575684,-0.678223,0.471191,-0.122070,-0.061035,-0.122070,21.47,0
2467618252,23836.414782,1777902668.007177,-1182,-1389,963,-2,-2,-1,-0.577148,-0.678223,0.470215,-0.122070,-0.122070,-0.061035,21.38,0
2467619264,23836.414804,1777902668.008188,-1182,-1389,964,-2,-1,0,-0.577148,-0.678223,0.470703,-0.122070,-0.061035,0.000000,21.48,0
2467620276,23836.414815,1777902668.009199,-1182,-1387,966,-3,-1,-1,-0.577148,-0.677246,0.471680,-0.183105,-0.061035,-0.061035,21.44,0
2467621288,23836.414826,1777902668.010211,-1182,-1388,962,-3,-2,-1,-0.577148,-0.677734,0.469727,-0.183105,-0.122070,-0.061035,21.38,0
2467622302,23836.414836,1777902668.011224,-1182,-1389,960,-2,-2,0,-0.577148,-0.678223,0.468750,-0.122070,-0.122070,0.000000,21.35,0
2467623314,23836.414847,1777902668.012235,-1183,-1388,963,-1,-1,0,-0.577637,-0.677734,0.470215,-0.061035,-0.061035,0.000000,21.50,0
2467624325,23836.414857,1777902668.013246,-1182,-1388,965,-2,-1,0,-0.577148,-0.677734,0.471191,-0.122070,-0.061035,0.000000,21.51,1
2467625338,23836.414869,1777902668.014258,-1180,-1391,965,-3,-2,0,-0.576172,-0.679199,0.471191,-0.183105,-0.122070,0.000000,21.38,0
2467626351,23836.422853,1777902668.015271,-1182,-1392,965,-3,-2,-1,-0.577148,-0.679688,0.471191,-0.183105,-0.122070,-0.061035,21.50,0
2467627362,23836.422869,1777902668.016281,-1184,-1390,963,-3,-2,0,-0.578125,-0.678711,0.470215,-0.183105,-0.122070,0.000000,21.45,0
2467628374,23836.422922,1777902668.017293,-1182,-1389,963,-2,-2,0,-0.577148,-0.678223,0.470215,-0.122070,-0.122070,0.000000,21.35,0
2467629386,23836.422933,1777902668.018304,-1178,-1388,965,-2,-1,0,-0.575195,-0.677734,0.471191,-0.122070,-0.061035,0.000000,21.32,0
2467630400,23836.422943,1777902668.019317,-1178,-1387,963,-3,-1,-1,-0.575195,-0.677246,0.470215,-0.183105,-0.061035,-0.061035,21.53,0
2467631413,23836.422954,1777902668.020330,-1180,-1385,961,-4,-1,0,-0.576172,-0.676270,0.469238,-0.244141,-0.061035,0.000000,21.48,0
2467632425,23836.422964,1777902668.021341,-1180,-1387,962,-3,-2,0,-0.576172,-0.677246,0.469727,-0.183105,-0.122070,0.000000,21.48,0
2467633436,23836.422974,1777902668.022351,-1180,-1391,964,-2,-1,0,-0.576172,-0.679199,0.470703,-0.122070,-0.061035,0.000000,21.47,0
2467634447,23836.430949,1777902668.023361,-1184,-1391,967,-2,-1,-1,-0.578125,-0.679199,0.472168,-0.122070,-0.061035,-0.061035,21.45,0
2467635462,23836.430965,1777902668.024374,-1187,-1387,970,-2,-1,-1,-0.579590,-0.677246,0.473633,-0.122070,-0.061035,-0.061035,21.41,1
2467636474,23836.430977,1777902668.025385,-1185,-1386,968,-2,-2,-1,-0.578613,-0.676758,0.472656,-0.122070,-0.122070,-0.061035,21.44,0
2467637485,23836.430987,1777902668.026395,-1181,-1390,964,-2,-3,-1,-0.576660,-0.678711,0.470703,-0.122070,-0.183105,-0.061035,21.47,0
2467638499,23836.430998,1777902668.027408,-1179,-1387,963,-2,-3,-1,-0.575684,-0.677246,0.470215,-0.122070,-0.183105,-0.061035,21.39,0
2467639511,23836.431013,1777902668.028420,-1182,-1382,965,-3,-2,-2,-0.577148,-0.674805,0.471191,-0.183105,-0.122070,-0.122070,21.47,0
2467640521,23836.431024,1777902668.029429,-1183,-1380,963,-3,-1,-1,-0.577637,-0.673828,0.470215,-0.183105,-0.061035,-0.061035,21.44,0
2467641534,23836.431035,1777902668.030441,-1182,-1383,963,-3,-1,-1,-0.577148,-0.675293,0.470215,-0.183105,-0.061035,-0.061035,21.45,0
2467642548,23836.439092,1777902668.031455,-1182,-1389,964,-3,-2,-2,-0.577148,-0.678223,0.470703,-0.183105,-0.122070,-0.122070,21.44,0
2467643559,23836.439113,1777902668.032465,-1181,-1388,963,-3,-1,-2,-0.576660,-0.677734,0.470215,-0.183105,-0.061035,-0.122070,21.44,0
2467644571,23836.439124,1777902668.033476,-1182,-1385,963,-3,0,-1,-0.577148,-0.676270,0.470215,-0.183105,0.000000,-0.061035,21.39,0
2467645583,23836.439134,1777902668.034487,-1182,-1386,963,-2,0,0,-0.577148,-0.676758,0.470215,-0.122070,0.000000,0.000000,21.44,0
2467646597,23836.439145,1777902668.035501,-1182,-1385,961,-2,-1,0,-0.577148,-0.676270,0.469238,-0.122070,-0.061035,0.000000,21.26,1
2467647608,23836.439156,1777902668.036511,-1182,-1384,961,-2,-1,-1,-0.577148,-0.675781,0.469238,-0.122070,-0.061035,-0.061035,21.41,0
2467648620,23836.439166,1777902668.037522,-1181,-1387,964,-2,-1,-1,-0.576660,-0.677246,0.470703,-0.122070,-0.061035,-0.061035,21.45,0
2467649632,23836.439177,1777902668.038533,-1181,-1390,966,-2,-1,-1,-0.576660,-0.678711,0.471680,-0.122070,-0.061035,-0.061035,21.39,0
2467650645,23836.447149,1777902668.039544,-1180,-1387,967,-2,-2,-1,-0.576172,-0.677246,0.472168,-0.122070,-0.122070,-0.061035,21.45,0
2467651656,23836.447166,1777902668.040554,-1181,-1386,970,-2,-2,-1,-0.576660,-0.676758,0.473633,-0.122070,-0.122070,-0.061035,21.47,0
2467652670,23836.447177,1777902668.041568,-1184,-1390,970,-3,-2,-1,-0.578125,-0.678711,0.473633,-0.183105,-0.122070,-0.061035,21.35,0
2467653683,23836.447187,1777902668.042580,-1182,-1388,969,-3,-1,-1,-0.577148,-0.677734,0.473145,-0.183105,-0.061035,-0.061035,21.42,0
2467654694,23836.447198,1777902668.043590,-1182,-1384,971,-3,-1,-2,-0.577148,-0.675781,0.474121,-0.183105,-0.061035,-0.122070,21.26,0
2467655705,23836.447208,1777902668.044600,-1185,-1384,969,-3,-1,-2,-0.578613,-0.675781,0.473145,-0.183105,-0.061035,-0.122070,21.44,0
2467656718,23836.447218,1777902668.045613,-1184,-1385,965,-3,-1,-1,-0.578125,-0.676270,0.471191,-0.183105,-0.061035,-0.061035,21.41,0
2467657730,23836.447229,1777902668.046624,-1182,-1386,965,-2,-2,0,-0.577148,-0.676758,0.471191,-0.122070,-0.122070,0.000000,21.47,1
2467658742,23836.455362,1777902668.047641,-1183,-1389,965,-2,-2,-1,-0.577637,-0.678223,0.471191,-0.122070,-0.122070,-0.061035,21.29,0
2467659755,23836.455382,1777902668.048653,-1184,-1390,965,-2,-2,-1,-0.578125,-0.678711,0.471191,-0.122070,-0.122070,-0.061035,21.48,0
2467660767,23836.455393,1777902668.049664,-1183,-1388,970,-3,-2,-1,-0.577637,-0.677734,0.473633,-0.183105,-0.122070,-0.061035,21.50,0
2467661779,23836.455404,1777902668.050676,-1184,-1389,970,-2,-2,-1,-0.578125,-0.678223,0.473633,-0.122070,-0.122070,-0.061035,21.44,0
2467662792,23836.455430,1777902668.051688,-1183,-1389,963,-1,-1,-1,-0.577637,-0.678223,0.470215,-0.061035,-0.061035,-0.061035,21.39,0
2467663804,23836.455451,1777902668.052699,-1179,-1388,963,-2,0,-1,-0.575684,-0.677734,0.470215,-0.122070,0.000000,-0.061035,21.42,0
2467664817,23836.455462,1777902668.053711,-1180,-1388,966,-3,-1,-1,-0.576172,-0.677734,0.471680,-0.183105,-0.061035,-0.061035,21.41,0
2467665829,23836.455473,1777902668.054723,-1181,-1387,965,-3,-3,-1,-0.576660,-0.677246,0.471191,-0.183105,-0.183105,-0.061035,21.53,0
2467666839,23836.463396,1777902668.055732,-1180,-1387,963,-4,-3,-2,-0.576172,-0.677246,0.470215,-0.244141,-0.183105,-0.122070,21.45,0
2467667854,23836.463414,1777902668.056746,-1181,-1385,966,-4,-2,-2,-0.576660,-0.676270,0.471680,-0.244141,-0.122070,-0.122070,21.50,0
2467668866,23836.463425,1777902668.057754,-1183,-1384,967,-3,-1,-1,-0.577637,-0.675781,0.472168,-0.183105,-0.061035,-0.061035,21.50,1
2467669878,23836.463437,1777902668.058765,-1181,-1385,968,-2,-1,0,-0.576660,-0.676270,0.472656,-0.122070,-0.061035,0.000000,21.53,0
2467670890,23836.463448,1777902668.059776,-1179,-1384,969,-3,-2,0,-0.575684,-0.675781,0.473145,-0.183105,-0.122070,0.000000,21.47,0
2467671902,23836.463458,1777902668.060787,-1180,-1385,968,-3,-3,-1,-0.576172,-0.676270,0.472656,-0.183105,-0.183105,-0.061035,21.54,0
2467672913,23836.463468,1777902668.061798,-1181,-1390,967,-1,-3,-1,-0.576660,-0.678711,0.472168,-0.061035,-0.183105,-0.061035,21.45,0
2467673926,23836.463478,1777902668.062810,-1180,-1388,966,-2,-2,-2,-0.576172,-0.677734,0.471680,-0.122070,-0.122070,-0.122070,21.44,0
2467674939,23836.471444,1777902668.063822,-1181,-1386,967,-4,-1,-2,-0.576660,-0.676758,0.472168,-0.244141,-0.061035,-0.122070,21.33,0
2467675950,23836.471462,1777902668.064832,-1182,-1386,966,-3,0,-1,-0.577148,-0.676758,0.471680,-0.183105,0.000000,-0.061035,21.42,0
2467676964,23836.471472,1777902668.065845,-1179,-1386,964,-2,-1,0,-0.575684,-0.676758,0.470703,-0.122070,-0.061035,0.000000,21.42,0
2467677975,23836.471483,1777902668.066856,-1180,-1387,964,-2,-2,0,-0.576172,-0.677246,0.470703,-0.122070,-0.122070,0.000000,21.41,0
2467678988,23836.471493,1777902668.067868,-1181,-1389,966,-3,-2,0,-0.576660,-0.678223,0.471680,-0.183105,-0.122070,0.000000,21.38,0
2467680001,23836.471504,1777902668.068880,-1181,-1388,966,-3,-2,-1,-0.576660,-0.677734,0.471680,-0.183105,-0.122070,-0.061035,21.45,1
2467681011,23836.471515,1777902668.069890,-1184,-1389,964,-3,-2,-1,-0.578125,-0.678223,0.470703,-0.183105,-0.122070,-0.061035,21.50,0
2467682026,23836.471526,1777902668.070904,-1185,-1388,964,-3,-3,0,-0.578613,-0.677734,0.470703,-0.183105,-0.183105,0.000000,21.41,0
2467683036,23836.479545,1777902668.071911,-1181,-1385,968,-3,-2,0,-0.576660,-0.676270,0.472656,-0.183105,-0.122070,0.000000,21.50,0
2467684048,23836.479561,1777902668.072922,-1179,-1387,967,-2,-2,0,-0.575684,-0.677246,0.472168,-0.122070,-0.122070,0.000000,21.48,0
2467685062,23836.479572,1777902668.073936,-1179,-1389,964,-1,-2,-2,-0.575684,-0.678223,0.470703,-0.061035,-0.122070,-0.122070,21.42,0
2467686075,23836.479583,1777902668.074948,-1182,-1387,964,-3,-3,-2,-0.577148,-0.677246,0.470703,-0.183105,-0.183105,-0.122070,21.38,0
2467687093,23836.479593,1777902668.075965,-1186,-1386,966,-4,-2,-1,-0.579102,-0.676758,0.471680,-0.244141,-0.122070,-0.061035,21.38,0
2467688101,23836.479604,1777902668.076972,-1183,-1388,964,-3,-1,0,-0.577637,-0.677734,0.470703,-0.183105,-0.061035,0.000000,21.39,0
2467689111,23836.479614,1777902668.077982,-1182,-1389,961,-2,-1,-1,-0.577148,-0.678223,0.469238,-0.122070,-0.061035,-0.061035,21.51,0
2467690123,23836.479625,1777902668.078993,-1184,-1388,964,-2,-2,-1,-0.578125,-0.677734,0.470703,-0.122070,-0.122070,-0.061035,21.33,0
2467691136,23836.487651,1777902668.080007,-1186,-1385,968,-2,-1,-1,-0.579102,-0.676270,0.472656,-0.122070,-0.061035,-0.061035,21.38,1
2467692148,23836.487668,1777902668.081018,-1185,-1384,966,-2,-1,-1,-0.578613,-0.675781,0.471680,-0.122070,-0.061035,-0.061035,21.44,0
2467693158,23836.487679,1777902668.082028,-1184,-1386,966,-2,-2,-1,-0.578125,-0.676758,0.471680,-0.122070,-0.122070,-0.061035,21.44,0
2467694171,23836.487689,1777902668.083040,-1184,-1384,966,-2,-3,-1,-0.578125,-0.675781,0.471680,-0.122070,-0.183105,-0.061035,21.32,0
2467695185,23836.487699,1777902668.084053,-1183,-1382,964,-3,-2,0,-0.577637,-0.674805,0.470703,-0.183105,-0.122070,0.000000,21.38,0
2467696197,23836.487735,1777902668.085064,-1181,-1389,964,-3,-1,0,-0.576660,-0.678223,0.470703,-0.183105,-0.061035,0.000000,21.39,0
2467697208,23836.487745,1777902668.086075,-1182,-1390,965,-3,-1,-1,-0.577148,-0.678711,0.471191,-0.183105,-0.061035,-0.061035,21.39,0
2467698222,23836.487756,1777902668.087088,-1182,-1386,964,-3,-2,-1,-0.577148,-0.676758,0.470703,-0.183105,-0.122070,-0.061035,21.45,0
2467699233,23836.495758,1777902668.088098,-1182,-1388,966,-3,-3,-1,-0.577148,-0.677734,0.471680,-0.183105,-0.183105,-0.061035,21.50,0
2467700245,23836.495775,1777902668.089109,-1182,-1389,967,-3,-3,-1,-0.577148,-0.678223,0.472168,-0.183105,-0.183105,-0.061035,21.41,0
2467701258,23836.495785,1777902668.090122,-1180,-1386,965,-3,-2,-1,-0.576172,-0.676758,0.471191,-0.183105,-0.122070,-0.061035,21.33,0
2467702271,23836.495796,1777902668.091144,-1180,-1386,962,-2,-1,0,-0.576172,-0.676758,0.469727,-0.122070,-0.061035,0.000000,21.38,1
2467703282,23836.495808,1777902668.092154,-1181,-1386,962,-1,-1,0,-0.576660,-0.676758,0.469727,-0.061035,-0.061035,0.000000,21.44,0
2467704294,23836.495818,1777902668.093165,-1183,-1386,964,-2,-1,0,-0.577637,-0.676758,0.470703,-0.122070,-0.061035,0.000000,21.41,0
2467705308,23836.495828,1777902668.094178,-1184,-1388,964,-2,-1,-1,-0.578125,-0.677734,0.470703,-0.122070,-0.061035,-0.061035,21.42,0
2467706320,23836.495839,1777902668.095190,-1185,-1390,962,-3,-1,-2,-0.578613,-0.678711,0.469727,-0.183105,-0.061035,-0.122070,21.41,0
2467707330,23836.503822,1777902668.096199,-1184,-1389,963,-4,-1,-1,-0.578125,-0.678223,0.470215,-0.244141,-0.061035,-0.061035,21.27,0
2467708343,23836.503838,1777902668.097211,-1180,-1385,965,-3,-1,-1,-0.576172,-0.676270,0.471191,-0.183105,-0.061035,-0.061035,21.50,0
2467709356,23836.503848,1777902668.098224,-1181,-1387,965,-3,-1,-1,-0.576660,-0.677246,0.471191,-0.183105,-0.061035,-0.061035,21.48,0
2467710368,23836.503859,1777902668.099235,-1180,-1390,966,-3,-1,-1,-0.576172,-0.678711,0.471680,-0.183105,-0.061035,-0.061035,21.42,0
2467711379,23836.503869,1777902668.100245,-1177,-1389,966,-3,-2,-1,-0.574707,-0.678223,0.471680,-0.183105,-0.122070,-0.061035,21.39,0
2467712394,23836.503880,1777902668.101260,-1181,-1385,968,-3,-2,-1,-0.576660,-0.676270,0.472656,-0.183105,-0.122070,-0.061035,21.35,0
2467713406,23836.503891,1777902668.102271,-1184,-1385,968,-2,-2,0,-0.578125,-0.676270,0.472656,-0.122070,-0.122070,0.000000,21.36,1
2467714417,23836.503902,1777902668.103281,-1180,-1388,963,-2,-2,0,-0.576172,-0.677734,0.470215,-0.122070,-0.122070,0.000000,21.45,0
2467715430,23836.511925,1777902668.104293,-1179,-1388,960,-2,-2,-1,-0.575684,-0.677734,0.468750,-0.122070,-0.122070,-0.061035,21.41,0
2467716443,23836.511941,1777902668.105305,-1183,-1388,963,-3,-2,-2,-0.577637,-0.677734,0.470215,-0.183105,-0.122070,-0.122070,21.41,0
2467717455,23836.511952,1777902668.106317,-1186,-1388,966,-3,-1,-2,-0.579102,-0.677734,0.471680,-0.183105,-0.061035,-0.122070,21.35,0
2467718466,23836.511963,1777902668.107327,-1185,-1388,965,-3,-1,-2,-0.578613,-0.677734,0.471191,-0.183105,-0.061035,-0.122070,21.32,0
2467719479,23836.511973,1777902668.108339,-1183,-1388,963,-3,-1,-1,-0.577637,-0.677734,0.470215,-0.183105,-0.061035,-0.061035,21.39,0
2467720491,23836.511983,1777902668.109350,-1181,-1388,963,-3,-2,-1,-0.576660,-0.677734,0.470215,-0.183105,-0.122070,-0.061035,21.48,0
2467721503,23836.511994,1777902668.110362,-1181,-1389,965,-2,-3,0,-0.576660,-0.678223,0.471191,-0.122070,-0.183105,0.000000,21.29,0
2467722516,23836.512010,1777902668.111374,-1182,-1387,968,-3,-1,0,-0.577148,-0.677246,0.472656,-0.183105,-0.061035,0.000000,21.47,0
2467723528,23836.520046,1777902668.112385,-1182,-1386,969,-3,0,-1,-0.577148,-0.676758,0.473145,-0.183105,0.000000,-0.061035,21.42,0
2467724538,23836.520062,1777902668.113386,-1181,-1388,968,-2,-2,-2,-0.576660,-0.677734,0.472656,-0.122070,-0.122070,-0.122070,21.51,1
2467725553,23836.520074,1777902668.114400,-1182,-1388,967,-2,-2,-1,-0.577148,-0.677734,0.472168,-0.122070,-0.122070,-0.061035,21.35,0
2467726564,23836.520084,1777902668.115411,-1185,-1384,965,-3,-1,-1,-0.578613,-0.675781,0.471191,-0.183105,-0.061035,-0.061035,21.30,0
2467727577,23836.520095,1777902668.116423,-1184,-1383,962,-3,-1,0,-0.578125,-0.675293,0.469727,-0.183105,-0.061035,0.000000,21.35,0
2467728589,23836.520105,1777902668.117434,-1180,-1388,964,-2,-1,1,-0.576172,-0.677734,0.470703,-0.122070,-0.061035,0.061035,21.35,0
2467729602,23836.520116,1777902668.118446,-1181,-1389,967,-3,-1,0,-0.576660,-0.678223,0.472168,-0.183105,-0.061035,0.000000,21.41,0
2467730614,23836.520126,1777902668.119458,-1183,-1385,970,-3,-1,0,-0.577637,-0.676270,0.473633,-0.183105,-0.061035,0.000000,21.29,0
2467731626,23836.528140,1777902668.120469,-1180,-1386,970,-2,-1,0,-0.576172,-0.676758,0.473633,-0.122070,-0.061035,0.000000,21.38,0
2467732638,23836.528166,1777902668.121480,-1178,-1391,968,-2,0,-1,-0.575195,-0.679199,0.472656,-0.122070,0.000000,-0.061035,21.41,0
2467733650,23836.528177,1777902668.122491,-1180,-1391,967,-3,-1,-1,-0.576172,-0.679199,0.472168,-0.183105,-0.061035,-0.061035,21.38,0
2467734663,23836.528188,1777902668.123504,-1181,-1385,966,-2,-2,0,-0.576660,-0.676270,0.471680,-0.122070,-0.122070,0.000000,21.35,0
2467735675,23836.528198,1777902668.124515,-1180,-1383,966,-2,-2,-1,-0.576172,-0.675293,0.471680,-0.122070,-0.122070,-0.061035,21.45,1
2467736688,23836.528210,1777902668.125527,-1180,-1387,965,-2,-1,-1,-0.576172,-0.677246,0.471191,-0.122070,-0.061035,-0.061035,21.42,0
2467737698,23836.528220,1777902668.126536,-1178,-1389,963,-2,0,-2,-0.575195,-0.678223,0.470215,-0.122070,0.000000,-0.122070,21.41,0
2467738711,23836.528231,1777902668.127549,-1178,-1388,964,-1,-1,-2,-0.575195,-0.677734,0.470703,-0.061035,-0.061035,-0.122070,21.53,0
2467739722,23836.536239,1777902668.128565,-1180,-1388,966,-1,-3,-2,-0.576172,-0.677734,0.471680,-0.061035,-0.183105,-0.122070,21.36,0
2467740737,23836.536254,1777902668.129580,-1180,-1389,967,-2,-4,-2,-0.576172,-0.678223,0.472168,-0.122070,-0.244141,-0.122070,21.38,0
2467741748,23836.536265,1777902668.130590,-1182,-1389,966,-2,-3,-1,-0.577148,-0.678223,0.471680,-0.122070,-0.183105,-0.061035,21.39,0
2467742761,23836.536276,1777902668.131602,-1184,-1386,967,-2,-2,-1,-0.578125,-0.676758,0.472168,-0.122070,-0.122070,-0.061035,21.47,0
2467743771,23836.536286,1777902668.132611,-1182,-1385,966,-2,-2,-1,-0.577148,-0.676270,0.471680,-0.122070,-0.122070,-0.061035,21.41,0
2467744785,23836.536297,1777902668.133625,-1181,-1386,967,-2,-2,-1,-0.576660,-0.676758,0.472168,-0.122070,-0.122070,-0.061035,21.39,0
2467745797,23836.536307,1777902668.134636,-1182,-1386,968,-2,-2,-1,-0.577148,-0.676758,0.472656,-0.122070,-0.122070,-0.061035,21.39,0
2467746811,23836.536318,1777902668.135649,-1182,-1389,966,-2,-1,0,-0.577148,-0.678223,0.471680,-0.122070,-0.061035,0.000000,21.47,1
2467747822,23836.544374,1777902668.136658,-1183,-1390,963,-2,-1,0,-0.577637,-0.678711,0.470215,-0.122070,-0.061035,0.000000,21.39,0
2467748833,23836.544393,1777902668.137668,-1182,-1389,961,-2,-2,-1,-0.577148,-0.678223,0.469238,-0.122070,-0.122070,-0.061035,21.26,0
2467749845,23836.544404,1777902668.138680,-1178,-1389,962,-2,-2,0,-0.575195,-0.678223,0.469727,-0.122070,-0.122070,0.000000,21.38,0
2467750860,23836.544415,1777902668.139694,-1181,-1385,966,-2,-2,-1,-0.576660,-0.676270,0.471680,-0.122070,-0.122070,-0.061035,21.38,0
2467751872,23836.544425,1777902668.140705,-1185,-1385,965,-2,-1,-1,-0.578613,-0.676270,0.471191,-0.122070,-0.061035,-0.061035,21.44,0
2467752883,23836.544496,1777902668.141715,-1183,-1391,963,-2,-1,-1,-0.577637,-0.679199,0.470215,-0.122070,-0.061035,-0.061035,21.33,0
2467753895,23836.544507,1777902668.142726,-1183,-1390,966,-2,-1,-1,-0.577637,-0.678711,0.471680,-0.122070,-0.061035,-0.061035,21.24,0
2467754906,23836.544518,1777902668.143737,-1182,-1384,966,-2,0,-2,-0.577148,-0.675781,0.471680,-0.122070,0.000000,-0.122070,21.48,0
2467755921,23836.552432,1777902668.144751,-1179,-1384,962,-2,0,-1,-0.575684,-0.675781,0.469727,-0.122070,0.000000,-0.061035,21.50,0
2467756931,23836.552449,1777902668.145760,-1182,-1387,965,-4,-2,0,-0.577148,-0.677246,0.471191,-0.244141,-0.122070,0.000000,21.23,0
2467757944,23836.552460,1777902668.146771,-1183,-1386,969,-4,-2,0,-0.577637,-0.676758,0.473145,-0.244141,-0.122070,0.000000,21.48,1
2467758957,23836.552472,1777902668.147784,-1183,-1383,968,-3,-1,0,-0.577637,-0.675293,0.472656,-0.183105,-0.061035,0.000000,21.51,0
2467759969,23836.552483,1777902668.148795,-1183,-1385,963,-3,-2,0,-0.577637,-0.676270,0.470215,-0.183105,-0.122070,0.000000,21.47,0
2467760981,23836.552493,1777902668.149806,-1184,-1386,962,-3,-2,-1,-0.578125,-0.676758,0.469727,-0.183105,-0.122070,-0.061035,21.44,0
2467761992,23836.552504,1777902668.150816,-1186,-1383,968,-3,-3,-2,-0.579102,-0.675293,0.472656,-0.183105,-0.183105,-0.122070,21.41,0
2467763006,23836.552515,1777902668.151830,-1185,-1384,970,-2,-2,-2,-0.578613,-0.675781,0.473633,-0.122070,-0.122070,-0.122070,21.39,0
2467764019,23836.560500,1777902668.152842,-1178,-1385,964,-3,-1,0,-0.575195,-0.676270,0.470703,-0.183105,-0.061035,0.000000,21.35,0
2467765029,23836.560515,1777902668.153851,-1177,-1385,961,-2,-1,0,-0.574707,-0.676270,0.469238,-0.122070,-0.061035,0.000000,21.44,0
2467766042,23836.560526,1777902668.154863,-1183,-1386,963,-2,-2,-1,-0.577637,-0.676758,0.470215,-0.122070,-0.122070,-0.061035,21.36,0
2467767055,23836.560537,1777902668.155876,-1185,-1387,962,-1,-2,-1,-0.578613,-0.677246,0.469727,-0.061035,-0.122070,-0.061035,21.39,0
2467768067,23836.560547,1777902668.156887,-1184,-1388,965,-1,-1,-1,-0.578125,-0.677734,0.471191,-0.061035,-0.061035,-0.061035,21.44,0
2467769079,23836.560557,1777902668.157898,-1184,-1386,969,-2,-2,0,-0.578125,-0.676758,0.473145,-0.122070,-0.122070,0.000000,21.44,1
2467770098,23836.560569,1777902668.158916,-1184,-1387,968,-3,-2,0,-0.578125,-0.677246,0.472656,-0.183105,-0.122070,0.000000,21.32,0
2467771103,23836.560579,1777902668.159921,-1182,-1387,967,-2,-2,-1,-0.577148,-0.677246,0.472168,-0.122070,-0.122070,-0.061035,21.39,0
2467772116,23836.568614,1777902668.160931,-1179,-1389,970,-1,-2,-2,-0.575684,-0.678223,0.473633,-0.061035,-0.122070,-0.122070,21.32,0
2467773127,23836.568633,1777902668.161942,-1179,-1393,970,-3,-1,0,-0.575684,-0.680176,0.473633,-0.183105,-0.061035,0.000000,21.47,0
2467774141,23836.568645,1777902668.162955,-1180,-1391,966,-4,-1,0,-0.576172,-0.679199,0.471680,-0.244141,-0.061035,0.000000,21.44,0
2467775151,23836.568656,1777902668.163964,-1181,-1386,962,-4,-2,-1,-0.576660,-0.676758,0.469727,-0.244141,-0.122070,-0.061035,21.44,0
2467776166,23836.568666,1777902668.164979,-1183,-1387,965,-3,-2,-1,-0.577637,-0.677246,0.471191,-0.183105,-0.122070,-0.061035,21.21,0
2467777176,23836.568677,1777902668.165988,-1182,-1388,968,-2,-1,-1,-0.577148,-0.677734,0.472656,-0.122070,-0.061035,-0.061035,21.50,0
2467778190,23836.568687,1777902668.167001,-1179,-1387,968,-2,0,-1,-0.575684,-0.677246,0.472656,-0.122070,0.000000,-0.061035,21.39,0
2467779203,23836.568698,1777902668.168013,-1182,-1387,967,-3,-2,-2,-0.577148,-0.677246,0.472168,-0.183105,-0.122070,-0.122070,21.42,0
2467780214,23836.577444,1777902668.169027,-1184,-1388,967,-2,-2,-2,-0.578125,-0.677734,0.472168,-0.122070,-0.122070,-0.122070,21.39,1
2467781225,23836.577461,1777902668.170037,-1180,-1387,966,-2,-2,-1,-0.576172,-0.677246,0.471680,-0.122070,-0.122070,-0.061035,21.38,0
2467782239,23836.577473,1777902668.171050,-1180,-1385,963,-3,-2,-1,-0.576172,-0.676270,0.470215,-0.183105,-0.122070,-0.061035,21.38,0
2467783251,23836.577484,1777902668.172061,-1183,-1387,962,-3,-1,0,-0.577637,-0.677246,0.469727,-0.183105,-0.061035,0.000000,21.45,0
2467784262,23836.577494,1777902668.173072,-1184,-1387,964,-2,0,0,-0.578125,-0.677246,0.470703,-0.122070,0.000000,0.000000,21.45,0
2467785274,23836.577505,1777902668.174083,-1182,-1387,966,-3,-1,1,-0.577148,-0.677246,0.471680,-0.183105,-0.061035,0.061035,21.44,0
2467786289,23836.577516,1777902668.175097,-1180,-1388,963,-3,-2,0,-0.576172,-0.677734,0.470215,-0.183105,-0.122070,0.000000,21.50,0
2467787299,23836.577527,1777902668.176106,-1179,-1387,962,-2,-2,1,-0.575684,-0.677246,0.469727,-0.122070,-0.122070,0.061035,21.53,0
2467788313,23836.584839,1777902668.177120,-1181,-1387,967,-2,-2,0,-0.576660,-0.677246,0.472168,-0.122070,-0.122070,0.000000,21.42,0
2467789323,23836.584860,1777902668.178129,-1184,-1390,970,-2,-2,-1,-0.578125,-0.678711,0.473633,-0.122070,-0.122070,-0.061035,21.42,0
2467790337,23836.584870,1777902668.179142,-1186,-1390,966,-3,-1,-1,-0.579102,-0.678711,0.471680,-0.183105,-0.061035,-0.061035,21.53,0
2467791348,23836.584881,1777902668.180156,-1184,-1388,964,-3,-1,-1,-0.578125,-0.677734,0.470703,-0.183105,-0.061035,-0.061035,21.45,1
2467792362,23836.584892,1777902668.181169,-1180,-1386,963,-3,-1,-1,-0.576172,-0.676758,0.470215,-0.183105,-0.061035,-0.061035,21.47,0
2467793373,23836.584903,1777902668.182179,-1182,-1388,961,-3,-1,-1,-0.577148,-0.677734,0.469238,-0.183105,-0.061035,-0.061035,21.41,0
2467794386,23836.584913,1777902668.183192,-1183,-1391,961,-3,-1,-1,-0.577637,-0.679199,0.469238,-0.183105,-0.061035,-0.061035,21.44,0
2467795397,23836.584925,1777902668.184202,-1181,-1391,962,-3,-2,-1,-0.576660,-0.679199,0.469727,-0.183105,-0.122070,-0.061035,21.41,0
2467796411,23836.592900,1777902668.185215,-1180,-1391,963,-2,-2,-1,-0.576172,-0.679199,0.470215,-0.122070,-0.122070,-0.061035,21.44,0
2467797424,23836.592921,1777902668.186228,-1181,-1390,966,-2,-1,0,-0.576660,-0.678711,0.471680,-0.122070,-0.061035,0.000000,21.35,0
2467798434,23836.592932,1777902668.187237,-1183,-1385,967,-3,0,0,-0.577637,-0.676270,0.472168,-0.183105,0.000000,0.000000,21.53,0
2467799448,23836.592943,1777902668.188250,-1181,-1386,963,-2,-1,0,-0.576660,-0.676758,0.470215,-0.122070,-0.061035,0.000000,21.42,0
2467800460,23836.592953,1777902668.189261,-1180,-1390,962,-2,-2,-1,-0.576172,-0.678711,0.469727,-0.122070,-0.122070,-0.061035,21.50,0
2467801470,23836.592963,1777902668.190271,-1181,-1386,964,-3,-2,-1,-0.576660,-0.676758,0.470703,-0.183105,-0.122070,-0.061035,21.48,0
2467802483,23836.592973,1777902668.191283,-1181,-1384,965,-3,-2,0,-0.576660,-0.675781,0.471191,-0.183105,-0.122070,0.000000,21.44,1
2467803496,23836.592985,1777902668.192295,-1181,-1387,966,-3,-2,1,-0.576660,-0.677246,0.471680,-0.183105,-0.122070,0.061035,21.32,0
2467804508,23836.601033,1777902668.193308,-1182,-1386,967,-3,-1,0,-0.577148,-0.676758,0.472168,-0.183105,-0.061035,0.000000,21.26,0
2467805520,23836.601063,1777902668.194319,-1181,-1387,966,-3,-1,0,-0.576660,-0.677246,0.471680,-0.183105,-0.061035,0.000000,21.36,0
2467806534,23836.601074,1777902668.195333,-1179,-1388,964,-3,-1,0,-0.575684,-0.677734,0.470703,-0.183105,-0.061035,0.000000,21.35,0
2467807546,23836.601084,1777902668.196344,-1181,-1385,960,-2,-1,0,-0.576660,-0.676270,0.468750,-0.122070,-0.061035,0.000000,21.47,0
2467808557,23836.601095,1777902668.197354,-1184,-1386,960,-2,-1,-1,-0.578125,-0.676758,0.468750,-0.122070,-0.061035,-0.061035,21.41,0
2467809569,23836.601106,1777902668.198365,-1184,-1390,963,-2,-1,-1,-0.578125,-0.678711,0.470215,-0.122070,-0.061035,-0.061035,21.47,0
2467810583,23836.601117,1777902668.199379,-1182,-1389,962,-2,-1,0,-0.577148,-0.678223,0.469727,-0.122070,-0.061035,0.000000,21.32,0
2467811595,23836.601127,1777902668.200390,-1182,-1388,966,-3,-1,0,-0.577148,-0.677734,0.471680,-0.183105,-0.061035,0.000000,21.29,0
2467812605,23836.609109,1777902668.201399,-1180,-1390,972,-2,-1,0,-0.576172,-0.678711,0.474609,-0.122070,-0.061035,0.000000,21.44,0
2467813618,23836.609127,1777902668.202411,-1180,-1389,970,-2,-1,0,-0.576172,-0.678223,0.473633,-0.122070,-0.061035,0.000000,21.41,1
2467814631,23836.609139,1777902668.203424,-1184,-1388,965,-2,-1,-1,-0.578125,-0.677734,0.471191,-0.122070,-0.061035,-0.061035,21.41,0
2467815644,23836.609207,1777902668.204436,-1182,-1389,965,-3,-1,-1,-0.577148,-0.678223,0.471191,-0.183105,-0.061035,-0.061035,21.44,0
2467816654,23836.609218,1777902668.205445,-1179,-1388,965,-2,-1,-1,-0.575684,-0.677734,0.471191,-0.122070,-0.061035,-0.061035,21.33,0
2467817669,23836.609228,1777902668.206460,-1182,-1388,964,-3,-2,-1,-0.577148,-0.677734,0.470703,-0.183105,-0.122070,-0.061035,21.38,0
2467818681,23836.609238,1777902668.207471,-1186,-1389,965,-3,-1,-1,-0.579102,-0.678223,0.471191,-0.183105,-0.061035,-0.061035,21.39,0
2467819692,23836.609248,1777902668.208481,-1185,-1389,967,-2,-1,-1,-0.578613,-0.678223,0.472168,-0.122070,-0.061035,-0.061035,21.44,0
2467820705,23836.617230,1777902668.209493,-1183,-1389,969,-2,-1,-1,-0.577637,-0.678223,0.473145,-0.122070,-0.061035,-0.061035,21.59,0
2467821716,23836.617253,1777902668.210504,-1182,-1389,968,-2,-1,-1,-0.577148,-0.678223,0.472656,-0.122070,-0.061035,-0.061035,21.41,0
2467822728,23836.617263,1777902668.211515,-1183,-1387,965,-2,-1,-1,-0.577637,-0.677246,0.471191,-0.122070,-0.061035,-0.061035,21.39,0
2467823740,23836.617274,1777902668.212526,-1184,-1385,964,-3,-2,0,-0.578125,-0.676270,0.470703,-0.183105,-0.122070,0.000000,21.42,0
2467824754,23836.617284,1777902668.213540,-1184,-1386,962,-3,-2,-1,-0.578125,-0.676758,0.469727,-0.183105,-0.122070,-0.061035,21.41,1
2467825766,23836.617296,1777902668.214551,-1183,-1384,959,-3,-2,-2,-0.577637,-0.675781,0.468262,-0.183105,-0.122070,-0.122070,21.42,0
2467826778,23836.617307,1777902668.215562,-1181,-1384,964,-3,-2,-1,-0.576660,-0.675781,0.470703,-0.183105,-0.122070,-0.061035,21.39,0
2467827792,23836.617317,1777902668.216575,-1182,-1387,968,-3,-2,0,-0.577148,-0.677246,0.472656,-0.183105,-0.122070,0.000000,21.48,0
2467828802,23836.625377,1777902668.217584,-1180,-1388,965,-3,-2,1,-0.576172,-0.677734,0.471191,-0.183105,-0.122070,0.061035,21.44,0
2467829815,23836.625431,1777902668.218597,-1180,-1388,961,-2,-2,0,-0.576172,-0.677734,0.469238,-0.122070,-0.122070,0.000000,21.38,0
2467830827,23836.625443,1777902668.219608,-1184,-1387,962,-3,-2,-1,-0.578125,-0.677246,0.469727,-0.183105,-0.122070,-0.061035,21.42,0
2467831840,23836.625454,1777902668.220620,-1184,-1385,967,-3,-2,-1,-0.578125,-0.676270,0.472168,-0.183105,-0.122070,-0.061035,21.41,0
2467832852,23836.625464,1777902668.221632,-1182,-1384,967,-1,-1,-1,-0.577148,-0.675781,0.472168,-0.061035,-0.061035,-0.061035,21.32,0
2467833863,23836.625475,1777902668.222642,-1181,-1385,967,-1,-1,-1,-0.576660,-0.676270,0.472168,-0.061035,-0.061035,-0.061035,21.42,0
2467834875,23836.625485,1777902668.223653,-1181,-1388,965,-2,-1,-1,-0.576660,-0.677734,0.471191,-0.122070,-0.061035,-0.061035,21.48,0
2467835890,23836.625496,1777902668.224667,-1179,-1390,962,-3,-2,0,-0.575684,-0.678711,0.469727,-0.183105,-0.122070,0.000000,21.44,1
2467836899,23836.633452,1777902668.225677,-1181,-1388,965,-3,-2,-1,-0.576660,-0.677734,0.471191,-0.183105,-0.122070,-0.061035,21.44,0
2467837912,23836.633501,1777902668.226690,-1182,-1386,967,-3,-2,-1,-0.577148,-0.676758,0.472168,-0.183105,-0.122070,-0.061035,21.47,0
2467838926,23836.633512,1777902668.227703,-1180,-1387,965,-3,-3,-1,-0.576172,-0.677246,0.471191,-0.183105,-0.183105,-0.061035,21.51,0
2467839938,23836.633522,1777902668.228714,-1182,-1387,966,-3,-4,0,-0.577148,-0.677246,0.471680,-0.183105,-0.244141,0.000000,21.44,0
2467840950,23836.633533,1777902668.229726,-1184,-1385,970,-3,-3,0,-0.578125,-0.676270,0.473633,-0.183105,-0.183105,0.000000,21.44,0
2467841961,23836.633543,1777902668.230736,-1182,-1387,968,-2,-2,-1,-0.577148,-0.677246,0.472656,-0.122070,-0.122070,-0.061035,21.50,0
2467842975,23836.633552,1777902668.231749,-1181,-1389,965,-2,-1,-2,-0.576660,-0.678223,0.471191,-0.122070,-0.061035,-0.122070,21.39,0
2467843987,23836.633563,1777902668.232760,-1179,-1388,965,-2,-2,-2,-0.575684,-0.677734,0.471191,-0.122070,-0.122070,-0.122070,21.35,0
2467845000,23836.641512,1777902668.233773,-1179,-1386,965,-3,-3,-1,-0.575684,-0.676758,0.471191,-0.183105,-0.183105,-0.061035,21.48,0
2467846011,23836.641539,1777902668.234783,-1183,-1385,966,-3,-1,-1,-0.577637,-0.676270,0.471680,-0.183105,-0.061035,-0.061035,21.41,0
2467847024,23836.641550,1777902668.235796,-1182,-1388,966,-3,0,-1,-0.577148,-0.677734,0.471680,-0.183105,0.000000,-0.061035,21.47,1
2467848036,23836.641561,1777902668.236807,-1181,-1389,962,-3,-2,0,-0.576660,-0.678223,0.469727,-0.183105,-0.122070,0.000000,21.30,0
2467849049,23836.641571,1777902668.237819,-1183,-1387,961,-3,-2,0,-0.577637,-0.677246,0.469238,-0.183105,-0.122070,0.000000,21.42,0
2467850060,23836.641582,1777902668.238830,-1185,-1387,964,-3,-1,-2,-0.578613,-0.677246,0.470703,-0.183105,-0.061035,-0.122070,21.53,0
2467851071,23836.641592,1777902668.239840,-1185,-1386,965,-3,-1,-2,-0.578613,-0.676758,0.471191,-0.183105,-0.061035,-0.122070,21.45,0
2467852096,23836.641602,1777902668.240865,-1185,-1387,965,-2,-2,-2,-0.578613,-0.677246,0.471191,-0.122070,-0.122070,-0.122070,21.39,0
2467853100,23836.649588,1777902668.241868,-1184,-1389,963,-2,-2,-1,-0.578125,-0.678223,0.470215,-0.122070,-0.122070,-0.061035,21.50,0
2467854110,23836.649606,1777902668.242877,-1182,-1388,962,-2,-1,0,-0.577148,-0.677734,0.469727,-0.122070,-0.061035,0.000000,21.50,0
2467855123,23836.649617,1777902668.243889,-1182,-1389,964,-3,-1,0,-0.577148,-0.678223,0.470703,-0.183105,-0.061035,0.000000,21.41,0
2467856135,23836.649628,1777902668.244900,-1181,-1390,968,-3,-1,-1,-0.576660,-0.678711,0.472656,-0.183105,-0.061035,-0.061035,21.41,0
2467857146,23836.649638,1777902668.245911,-1179,-1390,968,-2,-1,-2,-0.575684,-0.678711,0.472656,-0.122070,-0.061035,-0.122070,21.42,0
2467858157,23836.649649,1777902668.246921,-1183,-1388,967,-2,-1,0,-0.577637,-0.677734,0.472168,-0.122070,-0.061035,0.000000,21.36,1
2467859171,23836.649660,1777902668.247934,-1186,-1388,966,-3,-1,0,-0.579102,-0.677734,0.471680,-0.183105,-0.061035,0.000000,21.41,0
2467860182,23836.649671,1777902668.248945,-1184,-1388,965,-2,-1,0,-0.578125,-0.677734,0.471191,-0.122070,-0.061035,0.000000,21.44,0
2467861195,23836.657716,1777902668.249959,-1184,-1386,964,-2,-2,-1,-0.578125,-0.676758,0.470703,-0.122070,-0.122070,-0.061035,21.35,0
2467862208,23836.657734,1777902668.250971,-1182,-1384,966,-2,-2,-2,-0.577148,-0.675781,0.471680,-0.122070,-0.122070,-0.122070,21.29,0
2467863220,23836.657745,1777902668.251982,-1180,-1388,968,-3,-2,-2,-0.576172,-0.677734,0.472656,-0.183105,-0.122070,-0.122070,21.41,0
2467864231,23836.657755,1777902668.252993,-1182,-1391,967,-3,-2,-1,-0.577148,-0.679199,0.472168,-0.183105,-0.122070,-0.061035,21.42,0
2467865245,23836.657765,1777902668.254006,-1184,-1389,966,-3,-1,-1,-0.578125,-0.678223,0.471680,-0.183105,-0.061035,-0.061035,21.42,0
2467866256,23836.657776,1777902668.255016,-1183,-1389,965,-2,-2,-1,-0.577637,-0.678223,0.471191,-0.122070,-0.122070,-0.061035,21.47,0
2467867269,23836.657786,1777902668.256029,-1179,-1389,966,-2,-2,0,-0.575684,-0.678223,0.471680,-0.122070,-0.122070,0.000000,21.41,0
2467868281,23836.657796,1777902668.257040,-1181,-1389,968,-2,-1,-1,-0.576660,-0.678223,0.472656,-0.122070,-0.061035,-0.061035,21.33,0
2467869293,23836.665806,1777902668.258050,-1186,-1389,964,-3,-1,-1,-0.579102,-0.678223,0.470703,-0.183105,-0.061035,-0.061035,21.48,1
2467870304,23836.665828,1777902668.259061,-1185,-1387,961,-2,-1,-1,-0.578613,-0.677246,0.469238,-0.122070,-0.061035,-0.061035,21.41,0
2467871317,23836.665839,1777902668.260073,-1181,-1384,963,-2,-2,0,-0.576660,-0.675781,0.470215,-0.122070,-0.122070,0.000000,21.41,0
2467872330,23836.665850,1777902668.261085,-1180,-1385,963,-3,-3,0,-0.576172,-0.676270,0.470215,-0.183105,-0.183105,0.000000,21.44,0
2467873342,23836.665860,1777902668.262096,-1182,-1386,963,-3,-2,1,-0.577148,-0.676758,0.470215,-0.183105,-0.122070,0.061035,21.18,0
2467874353,23836.665871,1777902668.263107,-1183,-1385,962,-3,-1,0,-0.577637,-0.676270,0.469727,-0.183105,-0.061035,0.000000,21.33,0
2467875366,23836.665881,1777902668.264119,-1180,-1387,961,-2,-1,0,-0.576172,-0.677246,0.469238,-0.122070,-0.061035,0.000000,21.41,0
2467876378,23836.665891,1777902668.265130,-1179,-1389,966,-2,-2,-1,-0.575684,-0.678223,0.471680,-0.122070,-0.122070,-0.061035,21.44,0
2467877391,23836.673889,1777902668.266143,-1182,-1389,970,-2,-2,-1,-0.577148,-0.678223,0.473633,-0.122070,-0.122070,-0.061035,21.42,0
2467878403,23836.673909,1777902668.267154,-1182,-1388,968,-2,-2,-1,-0.577148,-0.677734,0.472656,-0.122070,-0.122070,-0.061035,21.35,0
2467879416,23836.673919,1777902668.268166,-1179,-1385,964,-2,-3,-1,-0.575684,-0.676270,0.470703,-0.122070,-0.183105,-0.061035,21.44,0
2467880428,23836.673929,1777902668.269179,-1179,-1386,966,-2,-2,-1,-0.575684,-0.676758,0.471680,-0.122070,-0.122070,-0.061035,21.44,1
2467881440,23836.673940,1777902668.270190,-1180,-1389,966,-1,-2,-2,-0.576172,-0.678223,0.471680,-0.061035,-0.122070,-0.122070,21.45,0
2467882454,23836.673950,1777902668.271204,-1182,-1387,964,-1,-2,-1,-0.577148,-0.677246,0.470703,-0.061035,-0.122070,-0.061035,21.50,0
2467883466,23836.673961,1777902668.272215,-1183,-1387,967,-3,-1,0,-0.577637,-0.677246,0.472168,-0.183105,-0.061035,0.000000,21.41,0
2467884478,23836.673971,1777902668.273226,-1180,-1391,966,-3,-2,0,-0.576172,-0.679199,0.471680,-0.183105,-0.122070,0.000000,21.35,0
2467885491,23836.681994,1777902668.274238,-1181,-1392,962,-3,-2,-1,-0.576660,-0.679688,0.469727,-0.183105,-0.122070,-0.061035,21.50,0
2467886502,23836.682038,1777902668.275249,-1183,-1388,966,-2,-1,-2,-0.577637,-0.677734,0.471680,-0.122070,-0.061035,-0.122070,21.48,0
2467887515,23836.682048,1777902668.276261,-1183,-1386,968,-2,-1,-2,-0.577637,-0.676758,0.472656,-0.122070,-0.061035,-0.122070,21.45,0
2467888525,23836.682059,1777902668.277270,-1184,-1388,967,-2,-1,-2,-0.578125,-0.677734,0.472168,-0.122070,-0.061035,-0.122070,21.53,0
2467889538,23836.682068,1777902668.278283,-1187,-1388,964,-4,-2,-1,-0.579590,-0.677734,0.470703,-0.244141,-0.122070,-0.061035,21.42,0
2467890553,23836.682078,1777902668.279297,-1184,-1386,962,-3,-2,-1,-0.578125,-0.676758,0.469727,-0.183105,-0.122070,-0.061035,21.39,0
2467891564,23836.682088,1777902668.280307,-1180,-1385,963,-3,-2,-1,-0.576172,-0.676270,0.470215,-0.183105,-0.122070,-0.061035,21.27,1
2467892574,23836.682100,1777902668.281317,-1182,-1387,962,-3,-2,-1,-0.577148,-0.677246,0.469727,-0.183105,-0.122070,-0.061035,21.44,0
2467893587,23836.690078,1777902668.282331,-1183,-1390,964,-3,-2,0,-0.577637,-0.678711,0.470703,-0.183105,-0.122070,0.000000,21.41,0
2467894601,23836.690104,1777902668.283344,-1180,-1389,966,-2,-2,-1,-0.576172,-0.678223,0.471680,-0.122070,-0.122070,-0.061035,21.42,0
2467895611,23836.690115,1777902668.284354,-1181,-1384,963,-2,-2,-1,-0.576660,-0.675781,0.470215,-0.122070,-0.122070,-0.061035,21.45,0
2467896623,23836.690126,1777902668.285365,-1181,-1384,962,-2,-2,0,-0.576660,-0.675781,0.469727,-0.122070,-0.122070,0.000000,21.45,0
2467897637,23836.690136,1777902668.286378,-1181,-1385,966,-3,-2,0,-0.576660,-0.676270,0.471680,-0.183105,-0.122070,0.000000,21.41,0
2467898650,23836.690147,1777902668.287390,-1180,-1385,966,-3,-2,0,-0.576172,-0.676270,0.471680,-0.183105,-0.122070,0.000000,21.44,0
2467899660,23836.690157,1777902668.288400,-1180,-1386,964,-3,-3,-1,-0.576172,-0.676758,0.470703,-0.183105,-0.183105,-0.061035,21.50,0
2467900673,23836.690167,1777902668.289412,-1182,-1387,963,-2,-3,-1,-0.577148,-0.677246,0.470215,-0.122070,-0.183105,-0.061035,21.45,0
2467901686,23836.698201,1777902668.290424,-1184,-1386,960,-3,-2,0,-0.578125,-0.676758,0.468750,-0.183105,-0.122070,0.000000,21.35,0
2467902697,23836.698231,1777902668.291436,-1182,-1386,964,-4,-1,1,-0.577148,-0.676758,0.470703,-0.244141,-0.061035,0.061035,21.38,1
2467903711,23836.698244,1777902668.292450,-1181,-1389,968,-3,-1,1,-0.576660,-0.678223,0.472656,-0.183105,-0.061035,0.061035,21.42,0
2467904723,23836.698255,1777902668.293461,-1181,-1387,965,-2,-2,0,-0.576660,-0.677246,0.471191,-0.122070,-0.122070,0.000000,21.47,0
2467905735,23836.698265,1777902668.294472,-1182,-1385,961,-3,-2,-1,-0.577148,-0.676270,0.469238,-0.183105,-0.122070,-0.061035,21.50,0
2467906746,23836.698276,1777902668.295483,-1183,-1389,964,-3,-1,-1,-0.577637,-0.678223,0.470703,-0.183105,-0.061035,-0.061035,21.51,0
2467907760,23836.698286,1777902668.296496,-1181,-1388,967,-2,-1,-1,-0.576660,-0.677734,0.472168,-0.122070,-0.061035,-0.061035,21.44,0
2467908771,23836.698296,1777902668.297506,-1180,-1385,969,-2,-1,-1,-0.576172,-0.676270,0.473145,-0.122070,-0.061035,-0.061035,21.38,0
2467909784,23836.706372,1777902668.298518,-1180,-1387,967,-2,-2,-1,-0.576172,-0.677246,0.472168,-0.122070,-0.122070,-0.061035,21.32,0
2467910795,23836.706408,1777902668.299529,-1180,-1389,964,-2,-3,-1,-0.576172,-0.678223,0.470703,-0.122070,-0.183105,-0.061035,21.41,0
2467911807,23836.706424,1777902668.300540,-1181,-1387,966,-2,-2,-1,-0.576660,-0.677246,0.471680,-0.122070,-0.122070,-0.061035,21.45,0
2467912821,23836.706436,1777902668.301553,-1184,-1388,965,-3,-1,-2,-0.578125,-0.677734,0.471191,-0.183105,-0.061035,-0.122070,21.45,0
2467913833,23836.706448,1777902668.302565,-1186,-1390,963,-4,-1,-1,-0.579102,-0.678711,0.470215,-0.244141,-0.061035,-0.061035,21.39,1
2467914844,23836.706461,1777902668.303575,-1185,-1389,965,-4,-2,0,-0.578613,-0.678223,0.471191,-0.244141,-0.122070,0.000000,21.29,0
2467915858,23836.706471,1777902668.304588,-1183,-1389,969,-2,-1,0,-0.577637,-0.678223,0.473145,-0.122070,-0.061035,0.000000,21.42,0
2467916869,23836.706482,1777902668.305599,-1181,-1388,970,-2,0,0,-0.576660,-0.677734,0.473633,-0.122070,0.000000,0.000000,21.42,0
2467917882,23836.714408,1777902668.306609,-1183,-1386,966,-3,-1,-1,-0.577637,-0.676758,0.471680,-0.183105,-0.061035,-0.061035,21.44,0
2467918895,23836.714430,1777902668.307621,-1182,-1385,965,-3,-3,-1,-0.577148,-0.676270,0.471191,-0.183105,-0.183105,-0.061035,21.44,0
2467919905,23836.714442,1777902668.308630,-1181,-1387,968,-3,-2,-1,-0.576660,-0.677246,0.472656,-0.183105,-0.122070,-0.061035,21.39,0
2467920919,23836.714453,1777902668.309644,-1182,-1387,965,-3,-1,-1,-0.577148,-0.677246,0.471191,-0.183105,-0.061035,-0.061035,21.39,0
2467921930,23836.714464,1777902668.310654,-1180,-1389,960,-2,-1,-2,-0.576172,-0.678223,0.468750,-0.122070,-0.061035,-0.122070,21.41,0
2467922944,23836.714476,1777902668.311667,-1181,-1389,961,-1,-2,-3,-0.576660,-0.678223,0.469238,-0.061035,-0.122070,-0.183105,21.32,0
2467923955,23836.714487,1777902668.312678,-1182,-1387,963,-1,-1,-2,-0.577148,-0.677246,0.470215,-0.061035,-0.061035,-0.122070,21.47,0
2467924969,23836.714498,1777902668.313691,-1183,-1390,965,-2,-1,-1,-0.577637,-0.678711,0.471191,-0.122070,-0.061035,-0.061035,21.44,1
2467925979,23836.722480,1777902668.314703,-1182,-1393,967,-3,-2,-1,-0.577148,-0.680176,0.472168,-0.183105,-0.122070,-0.061035,21.47,0
2467926992,23836.722497,1777902668.315715,-1181,-1387,965,-2,-2,-1,-0.576660,-0.677246,0.471191,-0.122070,-0.122070,-0.061035,21.41,0
2467928003,23836.722509,1777902668.316725,-1182,-1383,968,-2,-2,0,-0.577148,-0.675293,0.472656,-0.122070,-0.122070,0.000000,21.38,0
2467929015,23836.722520,1777902668.317737,-1181,-1385,971,-3,-2,0,-0.576660,-0.676270,0.474121,-0.183105,-0.122070,0.000000,21.42,0
2467930027,23836.722531,1777902668.318748,-1179,-1388,967,-3,-2,-2,-0.575684,-0.677734,0.472168,-0.183105,-0.122070,-0.122070,21.39,0
2467931042,23836.722542,1777902668.319762,-1179,-1388,967,-3,-2,-2,-0.575684,-0.677734,0.472168,-0.183105,-0.122070,-0.122070,21.44,0
2467932054,23836.722553,1777902668.320773,-1178,-1389,970,-3,-2,-1,-0.575195,-0.678223,0.473633,-0.183105,-0.122070,-0.061035,21.38,0
2467933067,23836.722564,1777902668.321786,-1179,-1385,967,-2,-2,-1,-0.575684,-0.676270,0.472168,-0.122070,-0.122070,-0.061035,21.39,0
2467934078,23836.730556,1777902668.322796,-1181,-1384,965,-2,-1,-2,-0.576660,-0.675781,0.471191,-0.122070,-0.061035,-0.122070,21.44,0
2467935097,23836.730575,1777902668.323814,-1182,-1386,964,-2,-1,-2,-0.577148,-0.676758,0.470703,-0.122070,-0.061035,-0.122070,21.44,0
2467936103,23836.730592,1777902668.324821,-1182,-1387,961,-2,-2,-2,-0.577148,-0.677246,0.469238,-0.122070,-0.122070,-0.122070,21.41,1
2467937115,23836.730606,1777902668.325833,-1183,-1385,962,-1,-3,-2,-0.577637,-0.676270,0.469727,-0.061035,-0.183105,-0.122070,21.23,0
2467938126,23836.730617,1777902668.326843,-1183,-1387,966,-2,-3,-1,-0.577637,-0.677246,0.471680,-0.122070,-0.183105,-0.061035,21.45,0
2467939139,23836.730628,1777902668.327856,-1182,-1388,968,-3,-2,0,-0.577148,-0.677734,0.472656,-0.183105,-0.122070,0.000000,21.53,0
2467940150,23836.730694,1777902668.328866,-1181,-1387,967,-3,-1,0,-0.576660,-0.677246,0.472168,-0.183105,-0.061035,0.000000,21.38,0
2467941164,23836.730705,1777902668.329879,-1180,-1388,968,-3,-1,0,-0.576172,-0.677734,0.472656,-0.183105,-0.061035,0.000000,21.57,0
2467942176,23836.738692,1777902668.330890,-1182,-1386,971,-3,-1,-1,-0.577148,-0.676758,0.474121,-0.183105,-0.061035,-0.061035,21.51,0
2467943188,23836.738739,1777902668.331902,-1181,-1385,969,-3,-1,-1,-0.576660,-0.676270,0.473145,-0.183105,-0.061035,-0.061035,21.41,0
2467944201,23836.738751,1777902668.332914,-1180,-1389,968,-3,-2,-2,-0.576172,-0.678223,0.472656,-0.183105,-0.122070,-0.122070,21.47,0
2467945212,23836.738763,1777902668.333925,-1184,-1388,969,-2,-2,-2,-0.578125,-0.677734,0.473145,-0.122070,-0.122070,-0.122070,21.47,0
2467946224,23836.738774,1777902668.334936,-1183,-1386,967,-1,-2,-1,-0.577637,-0.676758,0.472168,-0.061035,-0.122070,-0.061035,21.39,0
2467947238,23836.738785,1777902668.335949,-1180,-1388,967,-2,-2,-1,-0.576172,-0.677734,0.472168,-0.122070,-0.122070,-0.061035,21.45,1
2467948248,23836.738799,1777902668.336958,-1182,-1387,968,-3,-1,-1,-0.577148,-0.677246,0.472656,-0.183105,-0.061035,-0.061035,21.36,0
2467949262,23836.738810,1777902668.337972,-1183,-1390,965,-3,-1,-1,-0.577637,-0.678711,0.471191,-0.183105,-0.061035,-0.061035,21.38,0
2467950275,23836.746793,1777902668.338981,-1181,-1391,962,-2,-1,0,-0.576660,-0.679199,0.469727,-0.122070,-0.061035,0.000000,21.44,0
2467951287,23836.746812,1777902668.339993,-1181,-1390,965,-2,-1,0,-0.576660,-0.678711,0.471191,-0.122070,-0.061035,0.000000,21.44,0
2467952299,23836.746824,1777902668.341004,-1183,-1390,967,-2,-1,-1,-0.577637,-0.678711,0.472168,-0.122070,-0.061035,-0.061035,21.36,0
2467953312,23836.746835,1777902668.342016,-1182,-1389,967,-2,-1,-1,-0.577148,-0.678223,0.472168,-0.122070,-0.061035,-0.061035,21.38,0
2467954323,23836.746846,1777902668.343026,-1181,-1387,966,-1,-1,-1,-0.576660,-0.677246,0.471680,-0.061035,-0.061035,-0.061035,21.44,0
2467955337,23836.746857,1777902668.344040,-1181,-1382,965,-1,-2,0,-0.576660,-0.674805,0.471191,-0.061035,-0.122070,0.000000,21.51,0
2467956346,23836.746868,1777902668.345048,-1184,-1382,964,-2,-2,0,-0.578125,-0.674805,0.470703,-0.122070,-0.122070,0.000000,21.45,0
2467957359,23836.746879,1777902668.346060,-1186,-1385,966,-2,-1,-1,-0.579102,-0.676270,0.471680,-0.122070,-0.061035,-0.061035,21.29,0
2467958373,23836.754883,1777902668.347074,-1184,-1388,969,-2,-1,0,-0.578125,-0.677734,0.473145,-0.122070,-0.061035,0.000000,21.50,1
2467959384,23836.754907,1777902668.348084,-1178,-1391,965,-3,-2,-1,-0.575195,-0.679199,0.471191,-0.183105,-0.122070,-0.061035,21.35,0
2467960397,23836.754920,1777902668.349097,-1177,-1390,963,-3,-1,-1,-0.574707,-0.678711,0.470215,-0.183105,-0.061035,-0.061035,21.30,0
2467961410,23836.754931,1777902668.350109,-1183,-1388,967,-3,0,-1,-0.577637,-0.677734,0.472168,-0.183105,0.000000,-0.061035,21.32,0
2467962421,23836.754942,1777902668.351119,-1186,-1386,970,-2,-1,0,-0.579102,-0.676758,0.473633,-0.122070,-0.061035,0.000000,21.38,0
2467963434,23836.754954,1777902668.352131,-1180,-1384,966,-2,-2,-1,-0.576172,-0.675781,0.471680,-0.122070,-0.122070,-0.061035,21.38,0
2467964447,23836.754965,1777902668.353144,-1178,-1386,961,-2,-2,-1,-0.575195,-0.676758,0.469238,-0.122070,-0.122070,-0.061035,21.42,0
2467965458,23836.754976,1777902668.354154,-1181,-1386,963,-2,-1,-1,-0.576660,-0.676758,0.470215,-0.122070,-0.061035,-0.061035,21.33,0
2467966469,23836.762964,1777902668.355164,-1180,-1385,966,-2,0,-2,-0.576172,-0.676270,0.471680,-0.122070,0.000000,-0.122070,21.44,0
2467967484,23836.762987,1777902668.356179,-1180,-1385,964,-3,0,-1,-0.576172,-0.676270,0.470703,-0.183105,0.000000,-0.061035,21.45,0
2467968493,23836.762999,1777902668.357187,-1181,-1388,964,-3,-1,-1,-0.576660,-0.677734,0.470703,-0.183105,-0.061035,-0.061035,21.42,0
2467969506,23836.763019,1777902668.358200,-1182,-1390,967,-2,-2,-1,-0.577148,-0.678711,0.472168,-0.122070,-0.122070,-0.061035,21.45,1
2467970519,23836.763031,1777902668.359212,-1182,-1385,969,-2,-1,-1,-0.577148,-0.676270,0.473145,-0.122070,-0.061035,-0.061035,21.38,0
2467971530,23836.763042,1777902668.360222,-1184,-1383,969,-3,-2,-1,-0.578125,-0.675293,0.473145,-0.183105,-0.122070,-0.061035,21.41,0
2467972543,23836.763053,1777902668.361234,-1185,-1386,967,-3,-2,-1,-0.578613,-0.676758,0.472168,-0.183105,-0.122070,-0.061035,21.38,0
2467973558,23836.763064,1777902668.362249,-1181,-1388,968,-3,-1,-1,-0.576660,-0.677734,0.472656,-0.183105,-0.061035,-0.061035,21.38,0
2467974567,23836.771266,1777902668.363257,-1177,-1388,967,-3,0,-1,-0.574707,-0.677734,0.472168,-0.183105,0.000000,-0.061035,21.32,0
2467975581,23836.771279,1777902668.364270,-1180,-1390,966,-3,0,-1,-0.576172,-0.678711,0.471680,-0.183105,0.000000,-0.061035,21.50,0
2467976593,23836.771286,1777902668.365282,-1180,-1393,966,-4,-1,0,-0.576172,-0.680176,0.471680,-0.244141,-0.061035,0.000000,21.41,0
2467977606,23836.771293,1777902668.366294,-1178,-1391,965,-4,-2,0,-0.575195,-0.679199,0.471191,-0.244141,-0.122070,0.000000,21.36,0
2467978618,23836.771299,1777902668.367305,-1181,-1388,964,-3,-2,-2,-0.576660,-0.677734,0.470703,-0.183105,-0.122070,-0.122070,21.51,0
2467979629,23836.771306,1777902668.368316,-1183,-1387,963,-3,-1,-2,-0.577637,-0.677246,0.470215,-0.183105,-0.061035,-0.122070,21.50,0
2467980642,23836.771313,1777902668.369328,-1183,-1389,963,-3,-1,-1,-0.577637,-0.678223,0.470215,-0.183105,-0.061035,-0.061035,21.50,1
2467981655,23836.771320,1777902668.370340,-1183,-1389,962,-3,-2,-1,-0.577637,-0.678223,0.469727,-0.183105,-0.122070,-0.061035,21.50,0
2467982667,23836.779170,1777902668.371351,-1181,-1387,963,-3,-2,-1,-0.576660,-0.677246,0.470215,-0.183105,-0.122070,-0.061035,21.42,0
2467983678,23836.779178,1777902668.372362,-1181,-1386,967,-3,-2,0,-0.576660,-0.676758,0.472168,-0.183105,-0.122070,0.000000,21.47,0
2467984690,23836.779184,1777902668.373373,-1183,-1387,968,-3,-2,-1,-0.577637,-0.677246,0.472656,-0.183105,-0.122070,-0.061035,21.38,0
2467985704,23836.779191,1777902668.374386,-1184,-1387,966,-3,-2,-1,-0.578125,-0.677246,0.471680,-0.183105,-0.122070,-0.061035,21.38,0
2467986716,23836.779198,1777902668.375397,-1181,-1388,966,-4,-2,-1,-0.576660,-0.677734,0.471680,-0.244141,-0.122070,-0.061035,21.48,0
2467987727,23836.779204,1777902668.376408,-1178,-1387,965,-3,-2,-1,-0.575195,-0.677246,0.471191,-0.183105,-0.122070,-0.061035,21.47,0
2467988741,23836.779211,1777902668.377421,-1181,-1385,963,-3,-1,-2,-0.576660,-0.676270,0.470215,-0.183105,-0.061035,-0.122070,21.44,0
2467989753,23836.779218,1777902668.378433,-1182,-1387,965,-3,-1,-1,-0.577148,-0.677246,0.471191,-0.183105,-0.061035,-0.061035,21.38,0
2467990766,23836.787279,1777902668.379445,-1180,-1389,965,-3,-1,-1,-0.576172,-0.678223,0.471191,-0.183105,-0.061035,-0.061035,21.35,0
2467991777,23836.787299,1777902668.380456,-1180,-1388,963,-3,-2,-1,-0.576172,-0.677734,0.470215,-0.183105,-0.122070,-0.061035,21.38,1
2467992788,23836.787311,1777902668.381466,-1181,-1388,966,-3,-3,-2,-0.576660,-0.677734,0.471680,-0.183105,-0.183105,-0.122070,21.23,0
2467993802,23836.787322,1777902668.382479,-1181,-1387,966,-3,-2,-2,-0.576660,-0.677246,0.471680,-0.183105,-0.122070,-0.122070,21.41,0
2467994813,23836.787333,1777902668.383490,-1181,-1385,963,-3,-2,-1,-0.576660,-0.676270,0.470215,-0.183105,-0.122070,-0.061035,21.42,0
2467995826,23836.787343,1777902668.384502,-1182,-1385,966,-2,-2,0,-0.577148,-0.676270,0.471680,-0.122070,-0.122070,0.000000,21.47,0
2467996838,23836.787354,1777902668.385513,-1181,-1387,969,-2,-1,0,-0.576660,-0.677246,0.473145,-0.122070,-0.061035,0.000000,21.44,0
2467997850,23836.787365,1777902668.386525,-1180,-1389,968,-2,-2,-1,-0.576172,-0.678223,0.472656,-0.122070,-0.122070,-0.061035,21.39,0
2467998864,23836.795384,1777902668.387538,-1182,-1388,966,-3,-2,-1,-0.577148,-0.677734,0.471680,-0.183105,-0.122070,-0.061035,21.39,0
2467999876,23836.795415,1777902668.388549,-1181,-1386,963,-2,-2,0,-0.576660,-0.676758,0.470215,-0.122070,-0.122070,0.000000,21.44,0
2468000886,23836.795423,1777902668.389559,-1179,-1387,963,-2,-1,-1,-0.575684,-0.677246,0.470215,-0.122070,-0.061035,-0.061035,21.44,0
2468001901,23836.795485,1777902668.390573,-1179,-1386,967,-2,0,-2,-0.575684,-0.676758,0.472168,-0.122070,0.000000,-0.122070,21.29,0
2468002913,23836.795493,1777902668.391584,-1181,-1385,967,-2,-1,-2,-0.576660,-0.676270,0.472168,-0.122070,-0.061035,-0.122070,21.39,1
2468003923,23836.795502,1777902668.392593,-1182,-1385,964,-2,-2,0,-0.577148,-0.676270,0.470703,-0.122070,-0.122070,0.000000,21.41,0
2468004936,23836.795509,1777902668.393606,-1182,-1387,964,-3,-2,-1,-0.577148,-0.677246,0.470703,-0.183105,-0.122070,-0.061035,21.47,0
2468005949,23836.795516,1777902668.394618,-1182,-1390,966,-3,-2,-1,-0.577148,-0.678711,0.471680,-0.183105,-0.122070,-0.061035,21.42,0
2468006962,23836.803467,1777902668.395630,-1182,-1388,967,-3,-2,-1,-0.577148,-0.677734,0.472168,-0.183105,-0.122070,-0.061035,21.44,0
2468007973,23836.803486,1777902668.396641,-1182,-1385,966,-3,-2,0,-0.577148,-0.676270,0.471680,-0.183105,-0.122070,0.000000,21.39,0
2468008985,23836.803496,1777902668.397652,-1183,-1386,964,-2,-2,1,-0.577637,-0.676758,0.470703,-0.122070,-0.122070,0.061035,21.26,0
2468009998,23836.803505,1777902668.398664,-1185,-1388,963,-2,-2,1,-0.578613,-0.677734,0.470215,-0.122070,-0.122070,0.061035,21.48,0
2468011010,23836.803514,1777902668.399676,-1183,-1387,962,-3,-2,0,-0.577637,-0.677246,0.469727,-0.183105,-0.122070,0.000000,21.47,0
2468012022,23836.803523,1777902668.400687,-1180,-1384,962,-2,-2,0,-0.576172,-0.675781,0.469727,-0.122070,-0.122070,0.000000,21.39,0
2468013035,23836.803531,1777902668.401699,-1182,-1386,964,-2,-2,0,-0.577148,-0.676758,0.470703,-0.122070,-0.122070,0.000000,21.29,0
2468014048,23836.803540,1777902668.402711,-1183,-1390,965,-3,-2,-1,-0.577637,-0.678711,0.471191,-0.183105,-0.122070,-0.061035,21.44,1
2468015058,23836.811558,1777902668.403718,-1183,-1386,966,-4,-2,-1,-0.577637,-0.676758,0.471680,-0.244141,-0.122070,-0.061035,21.45,0
2468016072,23836.811580,1777902668.404732,-1183,-1381,966,-4,-2,-1,-0.577637,-0.674316,0.471680,-0.244141,-0.122070,-0.061035,21.44,0
2468017099,23836.811591,1777902668.405758,-1182,-1383,964,-3,-1,0,-0.577148,-0.675293,0.470703,-0.183105,-0.061035,0.000000,21.42,0
2468018099,23836.811603,1777902668.406757,-1181,-1384,963,-3,-1,0,-0.576660,-0.675781,0.470215,-0.183105,-0.061035,0.000000,21.38,0
2468019109,23836.811614,1777902668.407767,-1183,-1384,964,-3,-1,-1,-0.577637,-0.675781,0.470703,-0.183105,-0.061035,-0.061035,21.33,0
2468020121,23836.811624,1777902668.408778,-1186,-1386,968,-3,-1,-1,-0.579102,-0.676758,0.472656,-0.183105,-0.061035,-0.061035,21.42,0
2468021133,23836.811634,1777902668.409789,-1183,-1390,969,-2,-1,-1,-0.577637,-0.678711,0.473145,-0.122070,-0.061035,-0.061035,21.45,0
2468022146,23836.811645,1777902668.410801,-1182,-1388,967,-2,-2,-1,-0.577148,-0.677734,0.472168,-0.122070,-0.122070,-0.061035,21.44,0
2468023156,23836.819681,1777902668.411811,-1184,-1385,967,-2,-1,-1,-0.578125,-0.676270,0.472168,-0.122070,-0.061035,-0.061035,21.41,0
2468024168,23836.819704,1777902668.412822,-1186,-1386,966,-3,-1,-1,-0.579102,-0.676758,0.471680,-0.183105,-0.061035,-0.061035,21.50,0
2468025180,23836.819715,1777902668.413835,-1184,-1385,963,-3,-2,-1,-0.578125,-0.676270,0.470215,-0.183105,-0.122070,-0.061035,21.41,1
2468026192,23836.819728,1777902668.414846,-1182,-1387,965,-3,-2,-1,-0.577148,-0.677246,0.471191,-0.183105,-0.122070,-0.061035,21.50,0
2468027207,23836.819738,1777902668.415861,-1181,-1390,964,-3,-1,-1,-0.576660,-0.678711,0.470703,-0.183105,-0.061035,-0.061035,21.44,0
2468028218,23836.819748,1777902668.416871,-1182,-1388,964,-3,-2,0,-0.577148,-0.677734,0.470703,-0.183105,-0.122070,0.000000,21.48,0
2468029229,23836.819759,1777902668.417881,-1183,-1386,970,-2,-3,0,-0.577637,-0.676758,0.473633,-0.122070,-0.183105,0.000000,21.44,0
2468030243,23836.819769,1777902668.418895,-1181,-1388,970,-2,-2,0,-0.576660,-0.677734,0.473633,-0.122070,-0.122070,0.000000,21.45,0
2468031255,23836.827739,1777902668.419906,-1179,-1388,965,-3,-1,0,-0.575684,-0.677734,0.471191,-0.183105,-0.061035,0.000000,21.38,0
2468032267,23836.827756,1777902668.420917,-1181,-1387,963,-3,-1,-1,-0.576660,-0.677246,0.470215,-0.183105,-0.061035,-0.061035,21.42,0
2468033279,23836.827764,1777902668.421929,-1184,-1387,963,-2,-1,-1,-0.578125,-0.677246,0.470215,-0.122070,-0.061035,-0.061035,21.42,0
2468034291,23836.827771,1777902668.422940,-1182,-1388,965,-1,-1,-1,-0.577148,-0.677734,0.471191,-0.061035,-0.061035,-0.061035,21.41,0
2468035304,23836.827778,1777902668.423952,-1180,-1388,964,-2,-1,0,-0.576172,-0.677734,0.470703,-0.122070,-0.061035,0.000000,21.47,0
2468036315,23836.827785,1777902668.424963,-1179,-1390,965,-3,-2,0,-0.575684,-0.678711,0.471191,-0.183105,-0.122070,0.000000,21.36,1
2468037329,23836.827793,1777902668.425976,-1178,-1391,968,-2,-2,0,-0.575195,-0.679199,0.472656,-0.122070,-0.122070,0.000000,21.42,0
2468038339,23836.827800,1777902668.426985,-1180,-1389,966,-2,-2,-1,-0.576172,-0.678223,0.471680,-0.122070,-0.122070,-0.061035,21.39,0
2468039352,23836.835853,1777902668.427998,-1184,-1386,962,-3,-1,-2,-0.578125,-0.676758,0.469727,-0.183105,-0.061035,-0.122070,21.47,0
2468040366,23836.835891,1777902668.429011,-1186,-1387,964,-4,-1,-1,-0.579102,-0.677246,0.470703,-0.244141,-0.061035,-0.061035,21.39,0
2468041379,23836.835899,1777902668.430024,-1183,-1390,964,-3,-1,0,-0.577637,-0.678711,0.470703,-0.183105,-0.061035,0.000000,21.45,0
2468042391,23836.835906,1777902668.431035,-1179,-1388,962,-2,-1,0,-0.575684,-0.677734,0.469727,-0.122070,-0.061035,0.000000,21.41,0
2468043401,23836.835914,1777902668.432044,-1179,-1386,964,-3,-2,-2,-0.575684,-0.676758,0.470703,-0.183105,-0.122070,-0.122070,21.47,0
2468044414,23836.835921,1777902668.433057,-1182,-1388,969,-3,-3,-2,-0.577148,-0.677734,0.473145,-0.183105,-0.183105,-0.122070,21.44,0
2468045425,23836.835929,1777902668.434067,-1182,-1390,968,-2,-3,0,-0.577148,-0.678711,0.472656,-0.122070,-0.183105,0.000000,21.44,0
2468046439,23836.835936,1777902668.435080,-1181,-1386,964,-2,-3,0,-0.576660,-0.676758,0.470703,-0.122070,-0.183105,0.000000,21.38,0
2468047452,23836.843953,1777902668.436094,-1180,-1384,961,-3,-2,-1,-0.576172,-0.675781,0.469238,-0.183105,-0.122070,-0.061035,21.39,1
2468048462,23836.843969,1777902668.437103,-1181,-1387,962,-3,-2,-1,-0.576660,-0.677246,0.469727,-0.183105,-0.122070,-0.061035,21.41,0
2468049477,23836.843977,1777902668.438118,-1181,-1388,962,-3,-1,-1,-0.576660,-0.677734,0.469727,-0.183105,-0.061035,-0.061035,21.18,0
2468050488,23836.843984,1777902668.439128,-1182,-1387,962,-3,-1,-1,-0.577148,-0.677246,0.469727,-0.183105,-0.061035,-0.061035,21.39,0
2468051501,23836.843991,1777902668.440140,-1184,-1386,964,-2,-1,-1,-0.578125,-0.676758,0.470703,-0.122070,-0.061035,-0.061035,21.44,0
2468052511,23836.843998,1777902668.441150,-1184,-1386,965,-2,-1,0,-0.578125,-0.676758,0.471191,-0.122070,-0.061035,0.000000,21.47,0
2468053526,23836.844011,1777902668.442164,-1183,-1390,965,-2,-2,1,-0.577637,-0.678711,0.471191,-0.122070,-0.122070,0.061035,21.39,0
2468054537,23836.844018,1777902668.443174,-1185,-1391,965,-2,-3,0,-0.578613,-0.679199,0.471191,-0.122070,-0.183105,0.000000,21.48,0
2468055551,23836.852074,1777902668.444188,-1185,-1389,964,-3,-3,0,-0.578613,-0.678223,0.470703,-0.183105,-0.183105,0.000000,21.48,0
2468056562,23836.852102,1777902668.445198,-1183,-1388,966,-3,-2,0,-0.577637,-0.677734,0.471680,-0.183105,-0.122070,0.000000,21.41,0
2468057573,23836.852114,1777902668.446208,-1182,-1387,967,-3,-1,-1,-0.577148,-0.677246,0.472168,-0.183105,-0.061035,-0.061035,21.44,0
2468058587,23836.852125,1777902668.447221,-1184,-1386,964,-3,-2,-1,-0.578125,-0.676758,0.470703,-0.183105,-0.122070,-0.061035,21.41,1
2468059598,23836.852137,1777902668.448231,-1182,-1386,964,-2,-2,0,-0.577148,-0.676758,0.470703,-0.122070,-0.122070,0.000000,21.45,0
2468060611,23836.852148,1777902668.449244,-1181,-1387,967,-2,-2,0,-0.576660,-0.677246,0.472168,-0.122070,-0.122070,0.000000,21.32,0
2468061624,23836.852159,1777902668.450256,-1181,-1387,968,-3,-1,-1,-0.576660,-0.677246,0.472656,-0.183105,-0.061035,-0.061035,21.41,0
2468062636,23836.852169,1777902668.451267,-1179,-1386,967,-4,-1,-1,-0.575684,-0.676758,0.472168,-0.244141,-0.061035,-0.061035,21.39,0
2468063646,23836.860150,1777902668.452277,-1180,-1384,965,-3,-1,-1,-0.576172,-0.675781,0.471191,-0.183105,-0.061035,-0.061035,21.32,0
2468064660,23836.860207,1777902668.453290,-1185,-1384,964,-2,-1,-1,-0.578613,-0.675781,0.470703,-0.122070,-0.061035,-0.061035,21.38,0
2468065671,23836.860218,1777902668.454300,-1185,-1386,963,-3,-1,-1,-0.578613,-0.676758,0.470215,-0.183105,-0.061035,-0.061035,21.38,0
2468066683,23836.860229,1777902668.455312,-1182,-1387,963,-2,-1,-1,-0.577148,-0.677246,0.470215,-0.122070,-0.061035,-0.061035,21.44,0
2468067697,23836.860239,1777902668.456325,-1182,-1387,964,-1,-1,0,-0.577148,-0.677246,0.470703,-0.061035,-0.061035,0.000000,21.45,0
2468068710,23836.860249,1777902668.457337,-1183,-1387,963,-2,-2,0,-0.577637,-0.677246,0.470215,-0.122070,-0.122070,0.000000,21.50,0
2468069721,23836.860259,1777902668.458348,-1182,-1386,961,-3,-2,-1,-0.577148,-0.676758,0.469238,-0.183105,-0.122070,-0.061035,21.44,1
2468070732,23836.860269,1777902668.459358,-1181,-1383,964,-3,-2,-1,-0.576660,-0.675293,0.470703,-0.183105,-0.122070,-0.061035,21.47,0
2468071747,23836.868244,1777902668.460373,-1184,-1384,967,-3,-1,-1,-0.578125,-0.675781,0.472168,-0.183105,-0.061035,-0.061035,21.42,0
2468072759,23836.868333,1777902668.461385,-1185,-1388,968,-3,-1,-1,-0.578613,-0.677734,0.472656,-0.183105,-0.061035,-0.061035,21.38,0
2468073769,23836.868343,1777902668.462394,-1181,-1389,968,-2,-1,-1,-0.576660,-0.678223,0.472656,-0.122070,-0.061035,-0.061035,21.32,0
2468074783,23836.868353,1777902668.463407,-1179,-1388,966,-2,-2,-1,-0.575684,-0.677734,0.471680,-0.122070,-0.122070,-0.061035,21.23,0
2468075795,23836.868362,1777902668.464418,-1182,-1388,963,-2,-2,-1,-0.577148,-0.677734,0.470215,-0.122070,-0.122070,-0.061035,21.48,0
2468076807,23836.868372,1777902668.465430,-1182,-1388,965,-3,-2,-1,-0.577148,-0.677734,0.471191,-0.183105,-0.122070,-0.061035,21.41,0
2468077818,23836.868382,1777902668.466440,-1181,-1388,967,-2,-2,-1,-0.576660,-0.677734,0.472168,-0.122070,-0.122070,-0.061035,21.41,0
2468078830,23836.868391,1777902668.467451,-1183,-1388,964,-2,-2,0,-0.577637,-0.677734,0.470703,-0.122070,-0.122070,0.000000,21.36,0
2468079844,23836.876476,1777902668.468465,-1184,-1389,962,-2,-2,0,-0.578125,-0.678223,0.469727,-0.122070,-0.122070,0.000000,21.44,0
2468080857,23836.876494,1777902668.469479,-1181,-1390,963,-3,-2,1,-0.576660,-0.678711,0.470215,-0.183105,-0.122070,0.061035,21.38,1
2468081868,23836.876505,1777902668.470489,-1178,-1390,964,-3,-1,1,-0.575195,-0.678711,0.470703,-0.183105,-0.061035,0.061035,21.35,0
2468082881,23836.876515,1777902668.471502,-1178,-1388,966,-3,-1,0,-0.575195,-0.677734,0.471680,-0.183105,-0.061035,0.000000,21.32,0
2468083894,23836.876525,1777902668.472514,-1180,-1386,968,-3,-1,-1,-0.576172,-0.676758,0.472656,-0.183105,-0.061035,-0.061035,21.42,0
2468084904,23836.876534,1777902668.473523,-1181,-1388,968,-3,0,-1,-0.576660,-0.677734,0.472656,-0.183105,0.000000,-0.061035,21.36,0
2468085918,23836.876544,1777902668.474536,-1182,-1389,968,-2,-1,-1,-0.577148,-0.678223,0.472656,-0.122070,-0.061035,-0.061035,21.39,0
2468086930,23836.876553,1777902668.475548,-1184,-1386,967,-2,-2,-1,-0.578125,-0.676758,0.472168,-0.122070,-0.122070,-0.061035,21.41,0
2468087943,23836.884505,1777902668.476560,-1185,-1386,965,-3,-1,-1,-0.578613,-0.676758,0.471191,-0.183105,-0.061035,-0.061035,21.45,0
2468088953,23836.884533,1777902668.477569,-1182,-1389,966,-3,0,-1,-0.577148,-0.678223,0.471680,-0.183105,0.000000,-0.061035,21.44,0
2468089965,23836.884544,1777902668.478581,-1182,-1387,966,-2,-1,-1,-0.577148,-0.677246,0.471680,-0.122070,-0.061035,-0.061035,21.47,0
2468090977,23836.884553,1777902668.479592,-1184,-1384,962,-2,-2,0,-0.578125,-0.675781,0.469727,-0.122070,-0.122070,0.000000,21.41,0
2468091989,23836.884563,1777902668.480603,-1184,-1386,962,-2,-1,-1,-0.578125,-0.676758,0.469727,-0.122070,-0.061035,-0.061035,21.44,1
2468093002,23836.884574,1777902668.481616,-1185,-1387,968,-2,-2,-1,-0.578613,-0.677246,0.472656,-0.122070,-0.122070,-0.061035,21.39,0
2468094016,23836.884584,1777902668.482629,-1184,-1386,968,-1,-2,-1,-0.578125,-0.676758,0.472656,-0.061035,-0.122070,-0.061035,21.36,0
2468095027,23836.884594,1777902668.483639,-1181,-1386,966,-1,-1,-1,-0.576660,-0.676758,0.471680,-0.061035,-0.061035,-0.061035,21.32,0
2468096038,23836.892547,1777902668.484651,-1180,-1390,970,-1,-1,-1,-0.576172,-0.678711,0.473633,-0.061035,-0.061035,-0.061035,21.45,0
2468097052,23836.892566,1777902668.485665,-1181,-1391,968,-2,-1,-1,-0.576660,-0.679199,0.472656,-0.122070,-0.061035,-0.061035,21.47,0
2468098064,23836.892575,1777902668.486676,-1184,-1389,964,-3,-2,-1,-0.578125,-0.678223,0.470703,-0.183105,-0.122070,-0.061035,21.47,0
2468099077,23836.892585,1777902668.487688,-1183,-1386,964,-2,-2,-1,-0.577637,-0.676758,0.470703,-0.122070,-0.122070,-0.061035,21.47,0
2468100098,23836.892595,1777902668.488709,-1181,-1388,966,-2,-2,-1,-0.576660,-0.677734,0.471680,-0.122070,-0.122070,-0.061035,21.41,0
2468101100,23836.892605,1777902668.489710,-1183,-1389,966,-1,-2,-1,-0.577637,-0.678223,0.471680,-0.061035,-0.122070,-0.061035,21.44,0
2468102112,23836.892614,1777902668.490721,-1184,-1386,965,-1,-2,-1,-0.578125,-0.676758,0.471191,-0.061035,-0.122070,-0.061035,21.44,0
2468103124,23836.892624,1777902668.491733,-1181,-1384,968,-2,-1,0,-0.576660,-0.675781,0.472656,-0.122070,-0.061035,0.000000,21.44,1
2468104137,23836.900633,1777902668.492742,-1180,-1384,970,-3,-1,0,-0.576172,-0.675781,0.473633,-0.183105,-0.061035,0.000000,21.53,0
2468105149,23836.900650,1777902668.493753,-1181,-1385,968,-3,-2,0,-0.576660,-0.676270,0.472656,-0.183105,-0.122070,0.000000,21.33,0
2468106163,23836.900660,1777902668.494767,-1181,-1385,969,-2,-3,-1,-0.576660,-0.676270,0.473145,-0.122070,-0.183105,-0.061035,21.44,0
2468107176,23836.900670,1777902668.495779,-1180,-1386,968,-2,-2,-1,-0.576172,-0.676758,0.472656,-0.122070,-0.122070,-0.061035,21.39,0
2468108186,23836.900680,1777902668.496789,-1183,-1388,964,-3,-2,0,-0.577637,-0.677734,0.470703,-0.183105,-0.122070,0.000000,21.44,0
2468109200,23836.900689,1777902668.497802,-1184,-1387,965,-3,-2,0,-0.578125,-0.677246,0.471191,-0.183105,-0.122070,0.000000,21.47,0
2468110213,23836.900699,1777902668.498814,-1180,-1385,968,-3,-2,-1,-0.576172,-0.676270,0.472656,-0.183105,-0.122070,-0.061035,21.39,0
2468111223,23836.900708,1777902668.499823,-1179,-1390,968,-3,-2,-2,-0.575684,-0.678711,0.472656,-0.183105,-0.122070,-0.122070,21.47,0
2468112234,23836.908796,1777902668.500834,-1183,-1391,965,-3,-2,-1,-0.577637,-0.679199,0.471191,-0.183105,-0.122070,-0.061035,21.47,0
2468113247,23836.908835,1777902668.501846,-1186,-1387,966,-3,-2,0,-0.579102,-0.677246,0.471680,-0.183105,-0.122070,0.000000,21.38,0
2468114259,23836.908845,1777902668.502858,-1185,-1389,968,-3,-2,-1,-0.578613,-0.678223,0.472656,-0.183105,-0.122070,-0.061035,21.41,1
2468115273,23836.908857,1777902668.503871,-1182,-1391,966,-2,-1,-2,-0.577148,-0.679199,0.471680,-0.122070,-0.061035,-0.122070,21.39,0
2468116286,23836.908867,1777902668.504883,-1179,-1388,965,-2,-2,-1,-0.575684,-0.677734,0.471191,-0.122070,-0.122070,-0.061035,21.44,0
2468117297,23836.908885,1777902668.505894,-1182,-1388,966,-2,-2,0,-0.577148,-0.677734,0.471680,-0.122070,-0.122070,0.000000,21.41,0
2468118309,23836.908896,1777902668.506905,-1182,-1391,965,-2,-2,-1,-0.577148,-0.679199,0.471191,-0.122070,-0.122070,-0.061035,21.41,0
2468119323,23836.908906,1777902668.507918,-1181,-1391,962,-2,-1,-1,-0.576660,-0.679199,0.469727,-0.122070,-0.061035,-0.061035,21.27,0
2468120333,23836.916822,1777902668.508928,-1181,-1389,963,-3,-2,0,-0.576660,-0.678223,0.470215,-0.183105,-0.122070,0.000000,21.45,0
2468121347,23836.916839,1777902668.509941,-1179,-1386,967,-2,-2,0,-0.575684,-0.676758,0.472168,-0.122070,-0.122070,0.000000,21.26,0
2468122359,23836.916849,1777902668.510952,-1180,-1386,969,-1,-2,0,-0.576172,-0.676758,0.473145,-0.061035,-0.122070,0.000000,21.41,0
2468123370,23836.916859,1777902668.511963,-1184,-1388,966,-2,-2,-1,-0.578125,-0.677734,0.471680,-0.122070,-0.122070,-0.061035,21.39,0
2468124384,23836.916868,1777902668.512976,-1184,-1387,963,-3,-2,-1,-0.578125,-0.677246,0.470215,-0.183105,-0.122070,-0.061035,21.41,0
2468125394,23836.916878,1777902668.513985,-1180,-1385,966,-3,-2,-1,-0.576172,-0.676270,0.471680,-0.183105,-0.122070,-0.061035,21.50,1
2468126408,23836.916929,1777902668.514998,-1179,-1386,968,-2,-2,0,-0.575684,-0.676758,0.472656,-0.122070,-0.122070,0.000000,21.45,0
2468127418,23836.916939,1777902668.516008,-1181,-1386,967,-2,-2,0,-0.576660,-0.676758,0.472168,-0.122070,-0.122070,0.000000,21.50,0
2468128432,23836.924911,1777902668.517023,-1182,-1388,967,-3,-2,0,-0.577148,-0.677734,0.472168,-0.183105,-0.122070,0.000000,21.44,0
2468129444,23836.924931,1777902668.518034,-1184,-1389,967,-3,-2,-1,-0.578125,-0.678223,0.472168,-0.183105,-0.122070,-0.061035,21.44,0
2468130457,23836.924941,1777902668.519046,-1183,-1386,966,-2,-1,-2,-0.577637,-0.676758,0.471680,-0.122070,-0.061035,-0.122070,21.51,0
2468131469,23836.924951,1777902668.520057,-1181,-1385,964,-2,-1,-1,-0.576660,-0.676270,0.470703,-0.122070,-0.061035,-0.061035,21.39,0
2468132480,23836.924961,1777902668.521068,-1185,-1385,963,-3,-1,0,-0.578613,-0.676270,0.470215,-0.183105,-0.061035,0.000000,21.42,0
2468133494,23836.924970,1777902668.522081,-1186,-1382,967,-3,-2,-1,-0.579102,-0.674805,0.472168,-0.183105,-0.122070,-0.061035,21.44,0
2468134507,23836.924980,1777902668.523093,-1181,-1382,967,-3,-2,-2,-0.576660,-0.674805,0.472168,-0.183105,-0.122070,-0.122070,21.32,0
2468135517,23836.924990,1777902668.524103,-1179,-1385,966,-4,-2,-2,-0.575684,-0.676270,0.471680,-0.244141,-0.122070,-0.122070,21.41,0
2468136529,23836.933020,1777902668.525114,-1178,-1387,967,-4,-1,-1,-0.575195,-0.677246,0.472168,-0.244141,-0.061035,-0.061035,21.39,1
2468137541,23836.933043,1777902668.526125,-1181,-1389,967,-3,-1,-1,-0.576660,-0.678223,0.472168,-0.183105,-0.061035,-0.061035,21.44,0
2468138554,23836.933053,1777902668.527138,-1183,-1389,967,-2,-1,-1,-0.577637,-0.678223,0.472168,-0.122070,-0.061035,-0.061035,21.44,0
2468139568,23836.933063,1777902668.528151,-1183,-1385,967,-3,-1,-1,-0.577637,-0.676270,0.472168,-0.183105,-0.061035,-0.061035,21.42,0
2468140579,23836.933073,1777902668.529161,-1184,-1383,965,-2,-1,-1,-0.578125,-0.675293,0.471191,-0.122070,-0.061035,-0.061035,21.45,0
2468141593,23836.933082,1777902668.530175,-1184,-1385,965,-2,-1,-2,-0.578125,-0.676270,0.471191,-0.122070,-0.061035,-0.122070,21.48,0
2468142605,23836.933092,1777902668.531186,-1183,-1386,968,-2,-1,-2,-0.577637,-0.676758,0.472656,-0.122070,-0.061035,-0.122070,21.38,0
2468143616,23836.933102,1777902668.532196,-1182,-1386,966,-2,0,-1,-0.577148,-0.676758,0.471680,-0.122070,0.000000,-0.061035,21.47,0
2468144629,23836.941135,1777902668.533209,-1180,-1385,962,-2,-1,0,-0.576172,-0.676270,0.469727,-0.122070,-0.061035,0.000000,21.38,0
2468145641,23836.941157,1777902668.534220,-1181,-1385,964,-1,-2,-1,-0.576660,-0.676270,0.470703,-0.061035,-0.122070,-0.061035,21.30,0
2468146652,23836.941168,1777902668.535230,-1183,-1390,968,-1,-2,-1,-0.577637,-0.678711,0.472656,-0.061035,-0.122070,-0.061035,21.35,0
2468147665,23836.941177,1777902668.536242,-1184,-1387,969,-2,-2,0,-0.578125,-0.677246,0.473145,-0.122070,-0.122070,0.000000,21.53,1
2468148676,23836.941188,1777902668.537253,-1183,-1384,968,-3,-2,-1,-0.577637,-0.675781,0.472656,-0.183105,-0.122070,-0.061035,21.42,0
2468149690,23836.941198,1777902668.538266,-1181,-1387,966,-3,-1,-1,-0.576660,-0.677246,0.471680,-0.183105,-0.061035,-0.061035,21.33,0
2468150701,23836.941207,1777902668.539276,-1182,-1388,961,-3,-1,-1,-0.577148,-0.677734,0.469238,-0.183105,-0.061035,-0.061035,21.48,0
2468151714,23836.941217,1777902668.540288,-1183,-1387,961,-3,-1,-1,-0.577637,-0.677246,0.469238,-0.183105,-0.061035,-0.061035,21.35,0
2468152726,23836.949402,1777902668.541300,-1182,-1387,963,-2,-3,-1,-0.577148,-0.677246,0.470215,-0.122070,-0.183105,-0.061035,21.44,0
2468153740,23836.949421,1777902668.542313,-1183,-1385,963,-2,-2,0,-0.577637,-0.676270,0.470215,-0.122070,-0.122070,0.000000,21.42,0
2468154752,23836.949432,1777902668.543324,-1185,-1385,962,-3,-1,0,-0.578613,-0.676270,0.469727,-0.183105,-0.061035,0.000000,21.53,0
2468155764,23836.949443,1777902668.544336,-1186,-1386,961,-3,-2,-1,-0.579102,-0.676758,0.469238,-0.183105,-0.122070,-0.061035,21.44,0
2468156777,23836.949453,1777902668.545348,-1185,-1387,961,-2,-3,-1,-0.578613,-0.677246,0.469238,-0.122070,-0.183105,-0.061035,21.47,0
2468157788,23836.949463,1777902668.546358,-1186,-1390,964,-2,-3,-1,-0.579102,-0.678711,0.470703,-0.122070,-0.183105,-0.061035,21.48,0
2468158800,23836.949473,1777902668.547370,-1183,-1391,967,-2,-1,-1,-0.577637,-0.679199,0.472168,-0.122070,-0.061035,-0.061035,21.50,1
2468159813,23836.949484,1777902668.548382,-1182,-1388,965,-2,-1,-1,-0.577148,-0.677734,0.471191,-0.122070,-0.061035,-0.061035,21.38,0
2468160825,23836.957357,1777902668.549392,-1184,-1388,964,-3,-2,-1,-0.578125,-0.677734,0.470703,-0.183105,-0.122070,-0.061035,21.41,0
2468161836,23836.957375,1777902668.550403,-1182,-1387,964,-3,-2,0,-0.577148,-0.677246,0.470703,-0.183105,-0.122070,0.000000,21.39,0
2468162849,23836.957385,1777902668.551415,-1183,-1386,962,-2,-2,0,-0.577637,-0.676758,0.469727,-0.122070,-0.122070,0.000000,21.44,0
2468163862,23836.957395,1777902668.552427,-1183,-1387,960,-2,-2,0,-0.577637,-0.677246,0.468750,-0.122070,-0.122070,0.000000,21.44,0
2468164874,23836.957405,1777902668.553439,-1179,-1388,963,-3,-2,-1,-0.575684,-0.677734,0.470215,-0.183105,-0.122070,-0.061035,21.33,0
2468165885,23836.957414,1777902668.554449,-1178,-1388,966,-3,-4,-1,-0.575195,-0.677734,0.471680,-0.183105,-0.244141,-0.061035,21.33,0
2468166899,23836.957424,1777902668.555462,-1182,-1387,965,-3,-3,0,-0.577148,-0.677246,0.471191,-0.183105,-0.183105,0.000000,21.23,0
2468167911,23836.957434,1777902668.556473,-1185,-1387,967,-2,-2,0,-0.578613,-0.677246,0.472168,-0.122070,-0.122070,0.000000,21.39,0
2468168921,23836.965444,1777902668.557483,-1184,-1386,968,-2,-2,-1,-0.578125,-0.676758,0.472656,-0.122070,-0.122070,-0.061035,21.41,0
2468169935,23836.965468,1777902668.558498,-1183,-1384,967,-3,-3,0,-0.577637,-0.675781,0.472168,-0.183105,-0.183105,0.000000,21.51,1
2468170946,23836.965480,1777902668.559508,-1183,-1384,966,-3,-2,0,-0.577637,-0.675781,0.471680,-0.183105,-0.122070,0.000000,21.47,0
2468171961,23836.965490,1777902668.560523,-1181,-1388,966,-3,-1,-1,-0.576660,-0.677734,0.471680,-0.183105,-0.061035,-0.061035,21.39,0
2468172973,23836.965499,1777902668.561534,-1183,-1390,967,-3,-1,-1,-0.577637,-0.678711,0.472168,-0.183105,-0.061035,-0.061035,21.44,0
2468173985,23836.965509,1777902668.562545,-1186,-1388,968,-2,-2,0,-0.579102,-0.677734,0.472656,-0.122070,-0.122070,0.000000,21.42,0
2468174996,23836.965519,1777902668.563555,-1185,-1388,967,-2,-2,0,-0.578613,-0.677734,0.472168,-0.122070,-0.122070,0.000000,21.41,0
2468176008,23836.965528,1777902668.564567,-1182,-1392,962,-2,-3,0,-0.577148,-0.679688,0.469727,-0.122070,-0.183105,0.000000,21.42,0
2468177020,23836.973525,1777902668.565578,-1180,-1391,958,-3,-2,0,-0.576172,-0.679199,0.467773,-0.183105,-0.122070,0.000000,21.32,0
2468178033,23836.973551,1777902668.566590,-1181,-1387,958,-3,-2,-1,-0.576660,-0.677246,0.467773,-0.183105,-0.122070,-0.061035,21.42,0
2468179044,23836.973562,1777902668.567601,-1184,-1388,963,-2,-2,-1,-0.578125,-0.677734,0.470215,-0.122070,-0.122070,-0.061035,21.36,0
2468180056,23836.973572,1777902668.568612,-1185,-1387,966,-3,-1,-1,-0.578613,-0.677246,0.471680,-0.183105,-0.061035,-0.061035,21.45,0
2468181071,23836.973581,1777902668.569627,-1185,-1387,966,-3,-1,-1,-0.578613,-0.677246,0.471680,-0.183105,-0.061035,-0.061035,21.41,1
2468182082,23836.973592,1777902668.570637,-1184,-1387,963,-3,-2,-1,-0.578125,-0.677246,0.470215,-0.183105,-0.122070,-0.061035,21.39,0
2468183099,23836.973602,1777902668.571653,-1184,-1387,960,-2,-2,0,-0.578125,-0.677246,0.468750,-0.122070,-0.122070,0.000000,21.45,0
2468184107,23836.973611,1777902668.572661,-1186,-1386,960,-2,-2,0,-0.579102,-0.676758,0.468750,-0.122070,-0.122070,0.000000,21.26,0
2468185117,23836.981611,1777902668.573670,-1184,-1386,965,-2,-2,-1,-0.578125,-0.676758,0.471191,-0.122070,-0.122070,-0.061035,21.45,0
2468186130,23836.981631,1777902668.574682,-1181,-1388,967,-2,-2,-1,-0.576660,-0.677734,0.472168,-0.122070,-0.122070,-0.061035,21.38,0
2468187142,23836.981641,1777902668.575694,-1182,-1388,963,-3,-1,-2,-0.577148,-0.677734,0.470215,-0.183105,-0.061035,-0.122070,21.29,0
2468188154,23836.981650,1777902668.576705,-1181,-1385,964,-2,-1,-1,-0.576660,-0.676270,0.470703,-0.122070,-0.061035,-0.061035,21.38,0
2468189166,23836.981704,1777902668.577716,-1181,-1387,968,-1,-1,0,-0.576660,-0.677246,0.472656,-0.061035,-0.061035,0.000000,21.44,0
2468190179,23836.981714,1777902668.578729,-1181,-1389,966,-2,-1,0,-0.576660,-0.678223,0.471680,-0.122070,-0.061035,0.000000,21.41,0
2468191193,23836.981723,1777902668.579742,-1179,-1387,963,-3,-1,-1,-0.575684,-0.677246,0.470215,-0.183105,-0.061035,-0.061035,21.44,0
2468192205,23836.981733,1777902668.580753,-1182,-1389,966,-3,0,-2,-0.577148,-0.678223,0.471680,-0.183105,0.000000,-0.122070,21.47,1
2468193216,23836.990132,1777902668.581763,-1182,-1388,968,-3,-1,-1,-0.577148,-0.677734,0.472656,-0.183105,-0.061035,-0.061035,21.60,0
2468194230,23836.990151,1777902668.582777,-1180,-1386,967,-3,-2,-1,-0.576172,-0.676758,0.472168,-0.183105,-0.122070,-0.061035,21.41,0
2468195242,23836.990161,1777902668.583788,-1180,-1386,967,-3,-2,-1,-0.576172,-0.676758,0.472168,-0.183105,-0.122070,-0.061035,21.44,0
2468196253,23836.990170,1777902668.584798,-1180,-1386,966,-3,-1,-1,-0.576172,-0.676758,0.471680,-0.183105,-0.061035,-0.061035,21.44,0
2468197264,23836.990180,1777902668.585809,-1181,-1386,967,-2,-1,0,-0.576660,-0.676758,0.472168,-0.122070,-0.061035,0.000000,21.42,0
2468198278,23836.990190,1777902668.586822,-1181,-1389,968,-2,-2,-1,-0.576660,-0.678223,0.472656,-0.122070,-0.122070,-0.061035,21.44,0
2468199290,23836.990200,1777902668.587833,-1182,-1388,966,-2,-1,-2,-0.577148,-0.677734,0.471680,-0.122070,-0.061035,-0.122070,21.41,0
2468200302,23836.990209,1777902668.588844,-1184,-1387,961,-2,-1,-2,-0.578125,-0.677246,0.469238,-0.122070,-0.061035,-0.122070,21.20,0
2468201313,23836.997814,1777902668.589855,-1183,-1388,961,-2,-1,-1,-0.577637,-0.677734,0.469238,-0.122070,-0.061035,-0.061035,21.44,0
2468202327,23836.997845,1777902668.590868,-1182,-1387,965,-2,-2,0,-0.577148,-0.677246,0.471191,-0.122070,-0.122070,0.000000,21.47,0
2468203339,23836.997855,1777902668.591879,-1178,-1387,967,-2,-1,0,-0.575195,-0.677246,0.472168,-0.122070,-0.061035,0.000000,21.35,1
2468204352,23836.997865,1777902668.592891,-1174,-1389,967,-1,-1,-1,-0.573242,-0.678223,0.472168,-0.061035,-0.061035,-0.061035,21.38,0
2468205363,23836.997875,1777902668.593902,-1177,-1388,966,-2,-2,-1,-0.574707,-0.677734,0.471680,-0.122070,-0.122070,-0.061035,21.33,0
2468206376,23836.997885,1777902668.594914,-1184,-1382,963,-4,-2,-1,-0.578125,-0.674805,0.470215,-0.244141,-0.122070,-0.061035,21.41,0
2468207390,23836.997895,1777902668.595927,-1186,-1383,963,-3,-1,0,-0.579102,-0.675293,0.470215,-0.183105,-0.061035,0.000000,21.47,0
2468208402,23836.997904,1777902668.596939,-1187,-1387,966,-2,-1,0,-0.579590,-0.677246,0.471680,-0.122070,-0.061035,0.000000,21.36,0
2468209412,23837.005896,1777902668.597948,-1184,-1387,964,-2,-2,0,-0.578125,-0.677246,0.470703,-0.122070,-0.122070,0.000000,21.47,0
2468210426,23837.005919,1777902668.598961,-1182,-1387,964,-2,-2,0,-0.577148,-0.677246,0.470703,-0.122070,-0.122070,0.000000,21.41,0
2468211438,23837.005929,1777902668.599972,-1183,-1388,967,-2,-1,-1,-0.577637,-0.677734,0.472168,-0.122070,-0.061035,-0.061035,21.53,0
2468212448,23837.005939,1777902668.600982,-1182,-1387,965,-2,-1,-1,-0.577148,-0.677246,0.471191,-0.122070,-0.061035,-0.061035,21.39,0
2468213461,23837.005949,1777902668.601994,-1180,-1387,965,-2,-2,-1,-0.576172,-0.677246,0.471191,-0.122070,-0.122070,-0.061035,21.47,0
2468214475,23837.005959,1777902668.603008,-1182,-1390,966,-2,-1,-1,-0.577148,-0.678711,0.471680,-0.122070,-0.061035,-0.061035,21.42,1
2468215488,23837.005969,1777902668.604020,-1182,-1389,965,-3,-1,-1,-0.577148,-0.678223,0.471191,-0.183105,-0.061035,-0.061035,21.41,0
2468216498,23837.005979,1777902668.605029,-1180,-1385,964,-3,-1,-1,-0.576172,-0.676270,0.470703,-0.183105,-0.061035,-0.061035,21.44,0
2468217510,23837.014013,1777902668.606039,-1180,-1385,964,-3,-2,-1,-0.576172,-0.676270,0.470703,-0.183105,-0.122070,-0.061035,21.45,0
2468218523,23837.014037,1777902668.607051,-1182,-1385,965,-1,-1,0,-0.577148,-0.676270,0.471191,-0.061035,-0.061035,0.000000,21.50,0
2468219535,23837.014047,1777902668.608063,-1182,-1385,965,-2,-1,0,-0.577148,-0.676270,0.471191,-0.122070,-0.061035,0.000000,21.51,0
2468220549,23837.014057,1777902668.609076,-1180,-1385,964,-3,-2,-1,-0.576172,-0.676270,0.470703,-0.183105,-0.122070,-0.061035,21.59,0
2468221559,23837.014067,1777902668.610085,-1182,-1383,962,-3,-2,-1,-0.577148,-0.675293,0.469727,-0.183105,-0.122070,-0.061035,21.50,0
2468222573,23837.014077,1777902668.611099,-1185,-1382,961,-2,-1,-1,-0.578613,-0.674805,0.469238,-0.122070,-0.061035,-0.061035,21.32,0
2468223585,23837.014087,1777902668.612110,-1182,-1386,963,-2,-1,-1,-0.577148,-0.676758,0.470215,-0.122070,-0.061035,-0.061035,21.44,0
2468224597,23837.014096,1777902668.613121,-1181,-1390,966,-3,-1,0,-0.576660,-0.678711,0.471680,-0.183105,-0.061035,0.000000,21.41,0
2468225608,23837.022115,1777902668.614131,-1184,-1387,964,-4,-1,0,-0.578125,-0.677246,0.470703,-0.244141,-0.061035,0.000000,21.42,1
2468226622,23837.022165,1777902668.615144,-1178,-1386,966,-4,-1,-1,-0.575195,-0.676758,0.471680,-0.244141,-0.061035,-0.061035,21.48,0
