esp_timestamp_us,host_timestamp_s,unified_time_s,accel_x_raw,accel_y_raw,accel_z_raw,gyro_x_raw,gyro_y_raw,gyro_z_raw,accel_x_g,accel_y_g,accel_z_g,gyro_x_dps,gyro_y_dps,gyro_z_dps,temperature_c,fsync_flag
941707446,22310.548964,1777901142.154059,601,-1089,-1593,-3,-1,0,0.293457,-0.531738,-0.777832,-0.183105,-0.061035,0.000000,21.27,0
941708458,22310.548994,1777901142.155071,605,-1091,-1592,-1,-1,0,0.295410,-0.532715,-0.777344,-0.061035,-0.061035,0.000000,21.32,0
941709470,22310.549006,1777901142.156083,606,-1091,-1592,-2,-1,-1,0.295898,-0.532715,-0.777344,-0.122070,-0.061035,-0.061035,21.35,0
941710482,22310.549013,1777901142.157095,604,-1087,-1595,-3,-1,-1,0.294922,-0.530762,-0.778809,-0.183105,-0.061035,-0.061035,21.32,0
941711494,22310.549019,1777901142.158107,603,-1084,-1598,-4,-2,-1,0.294434,-0.529297,-0.780273,-0.244141,-0.122070,-0.061035,21.14,0
941712506,22310.549025,1777901142.159119,603,-1087,-1599,-3,-1,-1,0.294434,-0.530762,-0.780762,-0.183105,-0.061035,-0.061035,21.38,0
941713520,22310.549030,1777901142.160133,604,-1092,-1597,-3,0,0,0.294922,-0.533203,-0.779785,-0.183105,0.000000,0.000000,21.26,0
941714531,22310.549036,1777901142.161144,606,-1092,-1597,-3,0,0,0.295898,-0.533203,-0.779785,-0.183105,0.000000,0.000000,21.36,0
941715543,22310.557068,1777901142.162156,604,-1091,-1597,-3,0,1,0.294922,-0.532715,-0.779785,-0.183105,0.000000,0.061035,21.14,1
941716555,22310.557091,1777901142.163168,601,-1089,-1592,-4,0,1,0.293457,-0.531738,-0.777344,-0.244141,0.000000,0.061035,21.23,0
941717567,22310.557101,1777901150.446904,603,-1089,-1590,-4,-1,-1,0.294434,-0.531738,-0.776367,-0.244141,-0.061035,-0.061035,21.26,0
941718579,22310.557110,1777901149.032330,603,-1090,-1591,-4,-1,-1,0.294434,-0.532227,-0.776855,-0.244141,-0.061035,-0.061035,21.30,0
941719592,22310.557119,1777901147.602068,600,-1091,-1592,-4,-1,0,0.292969,-0.532715,-0.777344,-0.244141,-0.061035,0.000000,21.42,0
941720603,22310.557128,1777901146.276147,603,-1090,-1600,-4,-2,0,0.294434,-0.532227,-0.781250,-0.244141,-0.122070,0.000000,21.29,0
941721616,22310.557137,1777901144.921658,607,-1089,-1605,-3,-1,0,0.296387,-0.531738,-0.783691,-0.183105,-0.061035,0.000000,21.35,0
941722629,22310.557146,1777901143.638573,606,-1090,-1596,-3,0,-1,0.295898,-0.532227,-0.779297,-0.183105,0.000000,-0.061035,21.30,0
941723641,22310.565179,1777901142.246666,602,-1090,-1590,-3,-1,0,0.293945,-0.532227,-0.776367,-0.183105,-0.061035,0.000000,21.38,0
941724654,22310.565202,1777901144.461237,602,-1091,-1594,-4,-1,0,0.293945,-0.532715,-0.778320,-0.244141,-0.061035,0.000000,21.21,0
941725667,22310.565208,1777901145.065042,604,-1091,-1597,-4,-1,0,0.294922,-0.532715,-0.779785,-0.244141,-0.061035,0.000000,21.20,0
941726678,22310.565215,1777901145.036624,603,-1089,-1595,-3,-1,0,0.294434,-0.531738,-0.778809,-0.183105,-0.061035,0.000000,21.33,1
941727691,22310.565221,1777901144.720537,601,-1089,-1596,-2,-1,0,0.293457,-0.531738,-0.779297,-0.122070,-0.061035,0.000000,21.23,0
941728704,22310.565227,1777901144.243073,602,-1090,-1600,-3,-1,0,0.293945,-0.532227,-0.781250,-0.183105,-0.061035,0.000000,21.35,0
941729715,22310.565233,1777901143.637132,601,-1090,-1599,-4,-1,0,0.293457,-0.532227,-0.780762,-0.244141,-0.061035,0.000000,21.27,0
941730726,22310.565239,1777901142.946746,602,-1090,-1596,-4,-1,0,0.293945,-0.532227,-0.779297,-0.244141,-0.061035,0.000000,21.35,0
941731740,22310.573260,1777901142.165792,602,-1088,-1594,-3,-1,0,0.293945,-0.531250,-0.778320,-0.183105,-0.061035,0.000000,21.39,0
941732751,22310.573284,1777901142.166803,602,-1087,-1596,-3,0,-1,0.293945,-0.530762,-0.779297,-0.183105,0.000000,-0.061035,21.36,0
941733765,22310.573291,1777901142.167817,604,-1088,-1600,-3,-1,-1,0.294922,-0.531250,-0.781250,-0.183105,-0.061035,-0.061035,21.45,0
941734775,22310.573297,1777901142.168827,603,-1089,-1599,-3,-2,-1,0.294434,-0.531738,-0.780762,-0.183105,-0.122070,-0.061035,21.53,0
941735789,22310.573303,1777901142.169841,602,-1089,-1596,-3,-2,-1,0.293945,-0.531738,-0.779297,-0.183105,-0.122070,-0.061035,21.32,0
941736801,22310.573309,1777901142.170853,603,-1089,-1596,-2,-1,-1,0.294434,-0.531738,-0.779297,-0.122070,-0.061035,-0.061035,21.36,0
941737813,22310.573315,1777901142.171865,603,-1089,-1595,-3,-1,-1,0.294434,-0.531738,-0.778809,-0.183105,-0.061035,-0.061035,21.36,1
941738826,22310.573321,1777901142.172878,603,-1089,-1596,-3,-1,0,0.294434,-0.531738,-0.779297,-0.183105,-0.061035,0.000000,21.35,0
941739838,22310.581374,1777901142.173868,604,-1089,-1599,-3,-1,0,0.294922,-0.531738,-0.780762,-0.183105,-0.061035,0.000000,21.39,0
941740851,22310.581390,1777901142.174880,605,-1087,-1599,-3,-1,0,0.295410,-0.530762,-0.780762,-0.183105,-0.061035,0.000000,21.27,0
941741861,22310.581397,1777901142.175889,603,-1085,-1595,-3,-1,-1,0.294434,-0.529785,-0.778809,-0.183105,-0.061035,-0.061035,21.32,0
941742874,22310.581404,1777901142.176900,600,-1084,-1594,-3,0,-1,0.292969,-0.529297,-0.778320,-0.183105,0.000000,-0.061035,21.11,0
941743888,22310.581410,1777901142.177913,600,-1085,-1595,-2,0,-1,0.292969,-0.529785,-0.778809,-0.122070,0.000000,-0.061035,21.23,0
941744898,22310.581416,1777901142.178922,604,-1087,-1597,-3,0,-1,0.294922,-0.530762,-0.779785,-0.183105,0.000000,-0.061035,21.33,0
941745911,22310.581422,1777901142.179934,602,-1089,-1597,-3,-1,0,0.293945,-0.531738,-0.779785,-0.183105,-0.061035,0.000000,21.18,0
941746925,22310.581428,1777901142.180946,601,-1090,-1596,-3,-1,-1,0.293457,-0.532227,-0.779297,-0.183105,-0.061035,-0.061035,21.83,0
941747935,22310.589771,1777901142.181955,602,-1089,-1597,-4,-1,0,0.293945,-0.531738,-0.779785,-0.244141,-0.061035,0.000000,21.26,0
941748947,22310.589788,1777901142.182992,602,-1088,-1597,-4,-2,-1,0.293945,-0.531250,-0.779785,-0.244141,-0.122070,-0.061035,21.38,1
941749959,22310.589798,1777901142.184005,600,-1089,-1594,-3,-1,-1,0.292969,-0.531738,-0.778320,-0.183105,-0.061035,-0.061035,21.32,0
941750971,22310.589808,1777901142.185017,600,-1091,-1595,-3,0,-1,0.292969,-0.532715,-0.778809,-0.183105,0.000000,-0.061035,21.26,0
941751984,22310.589817,1777901142.186030,604,-1088,-1598,-4,0,0,0.294922,-0.531250,-0.780273,-0.244141,0.000000,0.000000,21.38,0
941752996,22310.589826,1777901142.187042,606,-1085,-1597,-4,-1,0,0.295898,-0.529785,-0.779785,-0.244141,-0.061035,0.000000,21.23,0
941754008,22310.589835,1777901142.188054,604,-1085,-1594,-2,0,0,0.294922,-0.529785,-0.778320,-0.122070,0.000000,0.000000,21.41,0
941755022,22310.589845,1777901142.189068,603,-1085,-1594,-2,0,0,0.294434,-0.529785,-0.778320,-0.122070,0.000000,0.000000,21.32,0
941756034,22310.597552,1777901142.190081,604,-1084,-1595,-2,-1,0,0.294922,-0.529297,-0.778809,-0.122070,-0.061035,0.000000,21.32,0
941757046,22310.597575,1777901142.191093,605,-1086,-1597,-2,-1,-1,0.295410,-0.530273,-0.779785,-0.122070,-0.061035,-0.061035,21.29,0
941758057,22310.597584,1777901142.192104,604,-1090,-1597,-2,-1,-2,0.294922,-0.532227,-0.779785,-0.122070,-0.061035,-0.122070,21.14,0
941759071,22310.597592,1777901142.193118,605,-1089,-1595,-3,0,-2,0.295410,-0.531738,-0.778809,-0.183105,0.000000,-0.122070,21.27,0
941760095,22310.597599,1777901142.194142,605,-1088,-1594,-3,0,-1,0.295410,-0.531250,-0.778320,-0.183105,0.000000,-0.061035,21.35,1
941761100,22310.597608,1777901142.195147,604,-1089,-1592,-3,0,-1,0.294922,-0.531738,-0.777344,-0.183105,0.000000,-0.061035,21.27,0
941762107,22310.597615,1777901142.196155,603,-1088,-1596,-3,-1,-1,0.294434,-0.531250,-0.779297,-0.183105,-0.061035,-0.061035,21.18,0
941763118,22310.597623,1777901142.197166,603,-1087,-1602,-3,-1,-1,0.294434,-0.530762,-0.782227,-0.183105,-0.061035,-0.061035,21.11,0
941764133,22310.605630,1777901142.198162,603,-1086,-1600,-2,0,-1,0.294434,-0.530273,-0.781250,-0.122070,0.000000,-0.061035,21.30,0
941765144,22310.605643,1777901142.199172,602,-1084,-1597,-3,0,-1,0.293945,-0.529297,-0.779785,-0.183105,0.000000,-0.061035,21.32,0
941766158,22310.605650,1777901142.200186,602,-1085,-1594,-4,-1,-1,0.293945,-0.529785,-0.778320,-0.244141,-0.061035,-0.061035,21.29,0
941767170,22310.605656,1777901142.201198,605,-1088,-1592,-4,-1,-2,0.295410,-0.531250,-0.777344,-0.244141,-0.061035,-0.122070,21.20,0
941768181,22310.605662,1777901142.202208,604,-1086,-1595,-3,0,-1,0.294922,-0.530273,-0.778809,-0.183105,0.000000,-0.061035,21.20,0
941769193,22310.605693,1777901142.203220,600,-1084,-1595,-3,0,0,0.292969,-0.529297,-0.778809,-0.183105,0.000000,0.000000,21.32,0
941770206,22310.605700,1777901142.204233,602,-1086,-1593,-3,-1,0,0.293945,-0.530273,-0.777832,-0.183105,-0.061035,0.000000,21.21,0
941771217,22310.605706,1777901142.205243,603,-1090,-1594,-3,-1,-1,0.294434,-0.532227,-0.778320,-0.183105,-0.061035,-0.061035,21.17,1
941772229,22310.614852,1777901142.206252,602,-1089,-1597,-3,0,-1,0.293945,-0.531738,-0.779785,-0.183105,0.000000,-0.061035,21.24,0
941773244,22310.614870,1777901142.207267,603,-1085,-1597,-2,-1,-1,0.294434,-0.529785,-0.779785,-0.122070,-0.061035,-0.061035,21.41,0
941774255,22310.614877,1777901142.208277,604,-1085,-1595,-3,-1,-1,0.294922,-0.529785,-0.778809,-0.183105,-0.061035,-0.061035,21.35,0
941775267,22310.614883,1777901142.209289,603,-1087,-1595,-4,-1,-1,0.294434,-0.530762,-0.778809,-0.244141,-0.061035,-0.061035,21.36,0
941776278,22310.614889,1777901142.210299,601,-1090,-1600,-4,0,-1,0.293457,-0.532227,-0.781250,-0.244141,0.000000,-0.061035,21.32,0
941777291,22310.614895,1777901142.211312,603,-1088,-1600,-3,-1,-1,0.294434,-0.531250,-0.781250,-0.183105,-0.061035,-0.061035,21.20,0
941778302,22310.614901,1777901142.212323,605,-1084,-1595,-3,-1,-1,0.295410,-0.529297,-0.778809,-0.183105,-0.061035,-0.061035,21.15,0
941779316,22310.614907,1777901142.213336,604,-1085,-1593,-4,0,-1,0.294922,-0.529785,-0.777832,-0.244141,0.000000,-0.061035,21.14,0
941780327,22310.621887,1777901142.214347,602,-1089,-1596,-4,-1,0,0.293945,-0.531738,-0.779297,-0.244141,-0.061035,0.000000,21.32,0
941781342,22310.621908,1777901142.215362,601,-1087,-1593,-4,-1,0,0.293457,-0.530762,-0.777832,-0.244141,-0.061035,0.000000,21.26,0
941782351,22310.621918,1777901142.216362,602,-1087,-1591,-3,-1,-1,0.293945,-0.530762,-0.776855,-0.183105,-0.061035,-0.061035,21.26,1
941783365,22310.621928,1777901142.217375,603,-1090,-1595,-3,0,-2,0.294434,-0.532227,-0.778809,-0.183105,0.000000,-0.122070,21.29,0
941784378,22310.621938,1777901142.218387,603,-1088,-1596,-3,0,-2,0.294434,-0.531250,-0.779297,-0.183105,0.000000,-0.122070,21.29,0
941785390,22310.621947,1777901142.219399,603,-1087,-1596,-2,-1,-1,0.294434,-0.530762,-0.779297,-0.122070,-0.061035,-0.061035,21.23,0
941786402,22310.621956,1777901142.220410,607,-1088,-1596,-3,-2,0,0.296387,-0.531250,-0.779297,-0.183105,-0.122070,0.000000,21.41,0
941787415,22310.621965,1777901142.221423,605,-1086,-1593,-3,-1,-1,0.295410,-0.530273,-0.777832,-0.183105,-0.061035,-0.061035,21.26,0
941788426,22310.629951,1777901142.222433,603,-1088,-1592,-4,-1,-2,0.294434,-0.531250,-0.777344,-0.244141,-0.061035,-0.122070,21.39,0
941789438,22310.629969,1777901142.223444,606,-1090,-1594,-4,-1,-1,0.295898,-0.532227,-0.778320,-0.244141,-0.061035,-0.061035,21.32,0
941790451,22310.629976,1777901142.224457,607,-1087,-1598,-3,-1,0,0.296387,-0.530762,-0.780273,-0.183105,-0.061035,0.000000,21.26,0
941791464,22310.629982,1777901142.225469,608,-1085,-1598,-3,-2,0,0.296875,-0.529785,-0.780273,-0.183105,-0.122070,0.000000,21.15,0
941792475,22310.629988,1777901142.226480,607,-1087,-1593,-3,-1,-1,0.296387,-0.530762,-0.777832,-0.183105,-0.061035,-0.061035,21.15,0
941793489,22310.629994,1777901142.227493,603,-1089,-1594,-3,0,-1,0.294434,-0.531738,-0.778320,-0.183105,0.000000,-0.061035,21.41,1
941794498,22310.630007,1777901142.228502,600,-1090,-1600,-3,0,-1,0.292969,-0.532227,-0.781250,-0.183105,0.000000,-0.061035,21.35,0
941795512,22310.630018,1777901142.229515,603,-1091,-1599,-3,-1,-1,0.294434,-0.532715,-0.780762,-0.183105,-0.061035,-0.061035,21.07,0
941796524,22310.638044,1777901142.230522,606,-1088,-1596,-5,-1,0,0.295898,-0.531250,-0.779297,-0.305176,-0.061035,0.000000,21.21,0
941797535,22310.638065,1777901142.231532,602,-1085,-1596,-4,0,0,0.293945,-0.529785,-0.779297,-0.244141,0.000000,0.000000,21.32,0
941798550,22310.638076,1777901142.232546,599,-1086,-1597,-3,0,-1,0.292480,-0.530273,-0.779785,-0.183105,0.000000,-0.061035,21.38,0
941799560,22310.638085,1777901142.233556,602,-1087,-1599,-3,-1,0,0.293945,-0.530762,-0.780762,-0.183105,-0.061035,0.000000,21.38,0
941800572,22310.638095,1777901142.234567,603,-1087,-1598,-5,-1,1,0.294434,-0.530762,-0.780273,-0.305176,-0.061035,0.061035,21.35,0
941801586,22310.638104,1777901142.235580,600,-1087,-1596,-5,-1,0,0.292969,-0.530762,-0.779297,-0.305176,-0.061035,0.000000,21.36,0
941802596,22310.638114,1777901142.236590,601,-1086,-1595,-3,-1,-1,0.293457,-0.530273,-0.778809,-0.183105,-0.061035,-0.061035,21.24,0
941803610,22310.638123,1777901142.237603,603,-1086,-1592,-3,-1,-1,0.294434,-0.530273,-0.777344,-0.183105,-0.061035,-0.061035,21.35,0
941804623,22310.646195,1777901142.238618,601,-1090,-1594,-3,-1,-1,0.293457,-0.532227,-0.778320,-0.183105,-0.061035,-0.061035,21.21,1
941805636,22310.646213,1777901142.239631,600,-1092,-1598,-4,-2,-2,0.292969,-0.533203,-0.780273,-0.244141,-0.122070,-0.122070,21.24,0
941806647,22310.646224,1777901142.240641,602,-1089,-1597,-4,-2,-2,0.293945,-0.531738,-0.779785,-0.244141,-0.122070,-0.122070,21.24,0
941807658,22310.646234,1777901142.241651,602,-1088,-1594,-4,-1,0,0.293945,-0.531250,-0.778320,-0.244141,-0.061035,0.000000,21.20,0
941808670,22310.646244,1777901142.242663,602,-1086,-1593,-3,0,0,0.293945,-0.530273,-0.777832,-0.183105,0.000000,0.000000,21.35,0
941809682,22310.646253,1777901142.243674,605,-1085,-1598,-3,-1,-1,0.295410,-0.529785,-0.780273,-0.183105,-0.061035,-0.061035,21.27,0
941810697,22310.646263,1777901142.244689,606,-1085,-1602,-3,-2,-1,0.295898,-0.529785,-0.782227,-0.183105,-0.122070,-0.061035,21.27,0
941811707,22310.646272,1777901142.245698,603,-1087,-1600,-3,-2,-1,0.294434,-0.530762,-0.781250,-0.183105,-0.122070,-0.061035,21.26,0
941812721,22310.654233,1777901142.246711,602,-1084,-1596,-3,0,-1,0.293945,-0.529297,-0.779297,-0.183105,0.000000,-0.061035,21.26,0
941813733,22310.654280,1777901142.247723,605,-1082,-1594,-4,0,-1,0.295410,-0.528320,-0.778320,-0.244141,0.000000,-0.061035,21.20,0
941814744,22310.654289,1777901142.248733,606,-1086,-1596,-3,0,-1,0.295898,-0.530273,-0.779297,-0.183105,0.000000,-0.061035,21.39,0
941815756,22310.654299,1777901142.249744,604,-1085,-1599,-2,-1,0,0.294922,-0.529785,-0.780762,-0.122070,-0.061035,0.000000,21.24,1
941816770,22310.654309,1777901142.250758,603,-1085,-1599,-2,-1,-1,0.294434,-0.529785,-0.780762,-0.122070,-0.061035,-0.061035,21.38,0
941817781,22310.654318,1777901142.251768,603,-1088,-1596,-3,-1,-1,0.294434,-0.531250,-0.779297,-0.183105,-0.061035,-0.061035,21.26,0
941818792,22310.654327,1777901142.252779,603,-1087,-1593,-3,-1,-1,0.294434,-0.530762,-0.777832,-0.183105,-0.061035,-0.061035,21.15,0
941819807,22310.654336,1777901142.253793,604,-1086,-1597,-3,-2,0,0.294922,-0.530273,-0.779785,-0.183105,-0.122070,0.000000,21.15,0
941820819,22310.662387,1777901142.254804,606,-1086,-1599,-3,-1,-1,0.295898,-0.530273,-0.780762,-0.183105,-0.061035,-0.061035,21.14,0
941821830,22310.662407,1777901142.255815,608,-1085,-1594,-3,-1,-2,0.296875,-0.529785,-0.778320,-0.183105,-0.061035,-0.122070,21.29,0
941822842,22310.662417,1777901142.256826,608,-1087,-1597,-3,-1,-2,0.296875,-0.530762,-0.779785,-0.183105,-0.061035,-0.122070,21.18,0
941823854,22310.662427,1777901142.257838,607,-1090,-1602,-4,-1,-2,0.296387,-0.532227,-0.782227,-0.244141,-0.061035,-0.122070,21.21,0
941824868,22310.662437,1777901142.258851,603,-1093,-1600,-4,-1,-2,0.294434,-0.533691,-0.781250,-0.244141,-0.061035,-0.122070,21.32,0
941825880,22310.662446,1777901142.259862,603,-1091,-1599,-3,-1,-1,0.294434,-0.532715,-0.780762,-0.183105,-0.061035,-0.061035,21.30,0
941826891,22310.662456,1777901142.260873,603,-1084,-1600,-3,-1,-1,0.294434,-0.529297,-0.781250,-0.183105,-0.061035,-0.061035,21.18,1
941827904,22310.662466,1777901142.261885,603,-1084,-1598,-4,-1,-1,0.294434,-0.529297,-0.780273,-0.244141,-0.061035,-0.061035,21.33,0
941828917,22310.670773,1777901142.262901,605,-1088,-1594,-4,0,-1,0.295410,-0.531250,-0.778320,-0.244141,0.000000,-0.061035,21.26,0
941829929,22310.670792,1777901142.263912,604,-1088,-1595,-4,0,-1,0.294922,-0.531250,-0.778809,-0.244141,0.000000,-0.061035,21.09,0
941830940,22310.670799,1777901142.264923,603,-1085,-1599,-4,-1,0,0.294434,-0.529785,-0.780762,-0.244141,-0.061035,0.000000,21.41,0
941831954,22310.670845,1777901142.265936,604,-1085,-1596,-3,-1,0,0.294922,-0.529785,-0.779297,-0.183105,-0.061035,0.000000,21.21,0
941832965,22310.670851,1777901142.266947,605,-1086,-1591,-3,-1,-1,0.295410,-0.530273,-0.776855,-0.183105,-0.061035,-0.061035,21.33,0
941833979,22310.670857,1777901142.267960,604,-1085,-1592,-3,0,-1,0.294922,-0.529785,-0.777344,-0.183105,0.000000,-0.061035,21.41,0
941834990,22310.670863,1777901142.268971,601,-1087,-1595,-2,-1,0,0.293457,-0.530762,-0.778809,-0.122070,-0.061035,0.000000,21.33,0
941836003,22310.670869,1777901142.269983,603,-1089,-1596,-3,-2,0,0.294434,-0.531738,-0.779297,-0.183105,-0.122070,0.000000,21.38,0
941837015,22310.678543,1777901142.270995,606,-1090,-1598,-4,-2,-1,0.295898,-0.532227,-0.780273,-0.244141,-0.122070,-0.061035,21.18,0
941838028,22310.678568,1777901142.272002,602,-1088,-1598,-4,-1,-1,0.293945,-0.531250,-0.780273,-0.244141,-0.061035,-0.061035,21.38,1
941839038,22310.678579,1777901142.273012,601,-1088,-1598,-4,-1,-1,0.293457,-0.531250,-0.780273,-0.244141,-0.061035,-0.061035,21.35,0
941840052,22310.678589,1777901142.274025,605,-1087,-1597,-4,-1,0,0.295410,-0.530762,-0.779785,-0.244141,-0.061035,0.000000,21.30,0
941841064,22310.678599,1777901142.275037,605,-1088,-1595,-4,-1,-1,0.295410,-0.531250,-0.778809,-0.244141,-0.061035,-0.061035,21.29,0
941842076,22310.678608,1777901142.276048,602,-1089,-1594,-4,-1,-1,0.293945,-0.531738,-0.778320,-0.244141,-0.061035,-0.061035,21.71,0
941843097,22310.678618,1777901142.277068,604,-1089,-1595,-4,-1,-1,0.294922,-0.531738,-0.778809,-0.244141,-0.061035,-0.061035,21.35,0
941844101,22310.678627,1777901142.278072,604,-1091,-1596,-5,-2,-1,0.294922,-0.532715,-0.779297,-0.305176,-0.122070,-0.061035,21.26,0
941845112,22310.686639,1777901142.279082,604,-1091,-1594,-5,-1,-1,0.294922,-0.532715,-0.778320,-0.305176,-0.061035,-0.061035,21.38,0
941846126,22310.686660,1777901142.280095,606,-1086,-1592,-4,0,-1,0.295898,-0.530273,-0.777344,-0.244141,0.000000,-0.061035,21.26,0
941847138,22310.686667,1777901142.281107,606,-1084,-1594,-4,0,0,0.295898,-0.529297,-0.778320,-0.244141,0.000000,0.000000,21.14,0
941848150,22310.686674,1777901142.282118,606,-1085,-1597,-3,-1,-1,0.295898,-0.529785,-0.779785,-0.183105,-0.061035,-0.061035,21.33,0
941849163,22310.686681,1777901142.283130,607,-1089,-1599,-3,0,-2,0.296387,-0.531738,-0.780762,-0.183105,0.000000,-0.122070,21.17,1
941850173,22310.686689,1777901142.284140,607,-1091,-1597,-3,-1,-1,0.296387,-0.532715,-0.779785,-0.183105,-0.061035,-0.061035,21.35,0
941851187,22310.686695,1777901142.285153,604,-1089,-1598,-4,-2,-1,0.294922,-0.531738,-0.780273,-0.244141,-0.122070,-0.061035,21.29,0
941852198,22310.686702,1777901142.286164,600,-1089,-1598,-4,-2,-1,0.292969,-0.531738,-0.780273,-0.244141,-0.122070,-0.061035,21.36,0
941853210,22310.694729,1777901142.287171,600,-1089,-1597,-4,-2,-1,0.292969,-0.531738,-0.779785,-0.244141,-0.122070,-0.061035,21.32,0
941854223,22310.694744,1777901142.288184,601,-1086,-1595,-4,-2,-1,0.293457,-0.530273,-0.778809,-0.244141,-0.122070,-0.061035,21.24,0
941855237,22310.694751,1777901142.289197,600,-1087,-1593,-4,-1,-1,0.292969,-0.530762,-0.777832,-0.244141,-0.061035,-0.061035,21.14,0
941856248,22310.694758,1777901142.290207,602,-1090,-1594,-3,-1,-1,0.293945,-0.532227,-0.778320,-0.183105,-0.061035,-0.061035,21.36,0
941857260,22310.694764,1777901142.291219,605,-1089,-1595,-3,-1,-1,0.295410,-0.531738,-0.778809,-0.183105,-0.061035,-0.061035,21.32,0
941858273,22310.694770,1777901142.292231,604,-1089,-1593,-3,-1,-1,0.294922,-0.531738,-0.777832,-0.183105,-0.061035,-0.061035,21.20,0
941859284,22310.694776,1777901142.293241,604,-1091,-1592,-3,-1,-2,0.294922,-0.532715,-0.777344,-0.183105,-0.061035,-0.122070,21.26,0
941860297,22310.694783,1777901142.294254,603,-1090,-1595,-3,0,-2,0.294434,-0.532227,-0.778809,-0.183105,0.000000,-0.122070,21.26,1
941861307,22310.702825,1777901142.295263,604,-1087,-1600,-3,0,-1,0.294922,-0.530762,-0.781250,-0.183105,0.000000,-0.061035,21.04,0
941862321,22310.702841,1777901142.296276,604,-1087,-1600,-3,0,-1,0.294922,-0.530762,-0.781250,-0.183105,0.000000,-0.061035,21.21,0
941863334,22310.702848,1777901142.297288,604,-1089,-1599,-2,-1,0,0.294922,-0.531738,-0.780762,-0.122070,-0.061035,0.000000,21.32,0
941864347,22310.702855,1777901142.298301,606,-1088,-1597,-3,-1,0,0.295898,-0.531250,-0.779785,-0.183105,-0.061035,0.000000,21.42,0
941865358,22310.702861,1777901142.299311,607,-1084,-1595,-4,-1,0,0.296387,-0.529297,-0.778809,-0.244141,-0.061035,0.000000,21.20,0
941866371,22310.702867,1777901142.300323,607,-1081,-1595,-4,-1,0,0.296387,-0.527832,-0.778809,-0.244141,-0.061035,0.000000,21.21,0
941867382,22310.702873,1777901142.301333,606,-1085,-1594,-4,-1,0,0.295898,-0.529785,-0.778320,-0.244141,-0.061035,0.000000,21.35,0
941868395,22310.702880,1777901142.302346,603,-1089,-1594,-3,-2,0,0.294434,-0.531738,-0.778320,-0.183105,-0.122070,0.000000,21.32,0
941869408,22310.710904,1777901142.303358,601,-1086,-1597,-3,-2,-1,0.293457,-0.530273,-0.779785,-0.183105,-0.122070,-0.061035,21.20,0
941870418,22310.710929,1777901142.304368,600,-1085,-1598,-3,-1,0,0.292969,-0.529785,-0.780273,-0.183105,-0.061035,0.000000,21.20,0
941871432,22310.710939,1777901142.305386,602,-1086,-1595,-2,0,0,0.293945,-0.530273,-0.778809,-0.122070,0.000000,0.000000,21.39,1
941872445,22310.710948,1777901142.306398,605,-1086,-1593,-3,0,-1,0.295410,-0.530273,-0.777832,-0.183105,0.000000,-0.061035,21.38,0
941873457,22310.710957,1777901142.307409,605,-1086,-1594,-3,-1,-1,0.295410,-0.530273,-0.778320,-0.183105,-0.061035,-0.061035,21.21,0
941874467,22310.710970,1777901142.308419,603,-1086,-1595,-3,-1,-1,0.294434,-0.530273,-0.778809,-0.183105,-0.061035,-0.061035,21.11,0
941875479,22310.710983,1777901142.309430,600,-1087,-1595,-3,-1,-1,0.292969,-0.530762,-0.778809,-0.183105,-0.061035,-0.061035,21.24,0
941876493,22310.710994,1777901142.310443,601,-1088,-1594,-3,-1,-1,0.293457,-0.531250,-0.778320,-0.183105,-0.061035,-0.061035,21.41,0
941877505,22310.719022,1777901142.311455,603,-1085,-1592,-3,-1,-1,0.294434,-0.529785,-0.777344,-0.183105,-0.061035,-0.061035,21.35,0
941878518,22310.719036,1777901142.312467,604,-1089,-1588,-2,0,-1,0.294922,-0.531738,-0.775391,-0.122070,0.000000,-0.061035,21.11,0
941879530,22310.719043,1777901142.313479,602,-1092,-1589,-2,0,-1,0.293945,-0.533203,-0.775879,-0.122070,0.000000,-0.061035,21.09,0
941880542,22310.719050,1777901142.314490,603,-1088,-1594,-2,-1,-1,0.294434,-0.531250,-0.778320,-0.122070,-0.061035,-0.061035,21.35,0
941881553,22310.719057,1777901142.315500,605,-1088,-1597,-3,-2,0,0.295410,-0.531250,-0.779785,-0.183105,-0.122070,0.000000,21.17,0
941882567,22310.719065,1777901142.316514,605,-1089,-1595,-3,-2,0,0.295410,-0.531738,-0.778809,-0.183105,-0.122070,0.000000,21.24,1
941883579,22310.719077,1777901142.317525,603,-1087,-1595,-2,-2,0,0.294434,-0.530762,-0.778809,-0.122070,-0.122070,0.000000,21.27,0
941884590,22310.719087,1777901142.318536,603,-1087,-1599,-1,-2,0,0.294434,-0.530762,-0.780762,-0.061035,-0.122070,0.000000,21.35,0
941885601,22310.727097,1777901142.319544,604,-1087,-1601,-3,-1,0,0.294922,-0.530762,-0.781738,-0.183105,-0.061035,0.000000,21.26,0
941886616,22310.727117,1777901142.320558,604,-1089,-1598,-4,-1,-1,0.294922,-0.531738,-0.780273,-0.244141,-0.061035,-0.061035,21.29,0
941887627,22310.727127,1777901142.321568,603,-1092,-1598,-3,0,-2,0.294434,-0.533203,-0.780273,-0.183105,0.000000,-0.122070,21.27,0
941888639,22310.727137,1777901142.322580,605,-1090,-1598,-3,0,-1,0.295410,-0.532227,-0.780273,-0.183105,0.000000,-0.061035,21.44,0
941889651,22310.727147,1777901142.323591,605,-1088,-1596,-3,-1,1,0.295410,-0.531250,-0.779297,-0.183105,-0.061035,0.061035,21.17,0
941890665,22310.727156,1777901142.324605,603,-1090,-1596,-3,-1,0,0.294434,-0.532227,-0.779297,-0.183105,-0.061035,0.000000,21.41,0
941891677,22310.727165,1777901142.325616,603,-1090,-1598,-4,-1,-2,0.294434,-0.532227,-0.780273,-0.244141,-0.061035,-0.122070,21.30,0
941892689,22310.727175,1777901142.326627,606,-1089,-1597,-3,-2,-2,0.295898,-0.531738,-0.779785,-0.183105,-0.122070,-0.122070,21.26,0
941893701,22310.735224,1777901142.327640,606,-1089,-1595,-3,-2,-2,0.295898,-0.531738,-0.778809,-0.183105,-0.122070,-0.122070,21.26,1
941894714,22310.735282,1777901142.328652,606,-1087,-1594,-3,-1,-1,0.295898,-0.530762,-0.778320,-0.183105,-0.061035,-0.061035,21.38,0
941895725,22310.735294,1777901142.329663,607,-1086,-1595,-4,-1,0,0.296387,-0.530273,-0.778809,-0.244141,-0.061035,0.000000,21.32,0
941896739,22310.735307,1777901142.330676,606,-1089,-1597,-4,-1,0,0.295898,-0.531738,-0.779785,-0.244141,-0.061035,0.000000,21.35,0
941897751,22310.735321,1777901142.331688,606,-1092,-1597,-3,0,0,0.295898,-0.533203,-0.779785,-0.183105,0.000000,0.000000,21.38,0
941898763,22310.735333,1777901142.332699,605,-1089,-1597,-2,-1,0,0.295410,-0.531738,-0.779785,-0.122070,-0.061035,0.000000,21.24,0
941899776,22310.735344,1777901142.333711,604,-1084,-1595,-3,-2,0,0.294922,-0.529297,-0.778809,-0.183105,-0.122070,0.000000,21.26,0
941900788,22310.735354,1777901142.334723,605,-1086,-1595,-3,-2,-1,0.295410,-0.530273,-0.778809,-0.183105,-0.122070,-0.061035,21.39,0
941901798,22310.743383,1777901142.335732,606,-1086,-1594,-2,-1,-1,0.295898,-0.530273,-0.778320,-0.122070,-0.061035,-0.061035,21.50,0
941902812,22310.743412,1777901142.336746,604,-1085,-1594,-3,0,-1,0.294922,-0.529785,-0.778320,-0.183105,0.000000,-0.061035,21.29,0
941903824,22310.743419,1777901142.337757,604,-1085,-1600,-3,-1,-1,0.294922,-0.529785,-0.781250,-0.183105,-0.061035,-0.061035,21.41,0
941904835,22310.743426,1777901142.338765,605,-1085,-1598,-2,-1,0,0.295410,-0.529785,-0.780273,-0.122070,-0.061035,0.000000,21.26,1
941905848,22310.743433,1777901142.339778,604,-1085,-1595,-2,-1,0,0.294922,-0.529785,-0.778809,-0.122070,-0.061035,0.000000,21.38,0
941906859,22310.743439,1777901142.340788,605,-1086,-1598,-3,-1,0,0.295410,-0.530273,-0.780273,-0.183105,-0.061035,0.000000,21.26,0
941907873,22310.743445,1777901142.341802,605,-1086,-1596,-2,-2,0,0.295410,-0.530273,-0.779297,-0.122070,-0.122070,0.000000,21.21,0
941908885,22310.743452,1777901142.342813,604,-1086,-1592,-2,-1,0,0.294922,-0.530273,-0.777344,-0.122070,-0.061035,0.000000,21.29,0
941909897,22310.751420,1777901142.343824,604,-1087,-1595,-3,0,0,0.294922,-0.530762,-0.778809,-0.183105,0.000000,0.000000,21.42,0
941910910,22310.751438,1777901142.344837,604,-1089,-1597,-3,-1,0,0.294922,-0.531738,-0.779785,-0.183105,-0.061035,0.000000,21.35,0
941911922,22310.751449,1777901142.345848,605,-1090,-1599,-3,-1,-1,0.295410,-0.532227,-0.780762,-0.183105,-0.061035,-0.061035,21.38,0
941912935,22310.751459,1777901142.346860,607,-1090,-1599,-3,-1,0,0.296387,-0.532227,-0.780762,-0.183105,-0.061035,0.000000,21.41,0
941913946,22310.751469,1777901142.347871,605,-1089,-1597,-3,-2,0,0.295410,-0.531738,-0.779785,-0.183105,-0.122070,0.000000,21.29,0
941914960,22310.751479,1777901142.348884,603,-1086,-1595,-3,-1,0,0.294434,-0.530273,-0.778809,-0.183105,-0.061035,0.000000,21.29,0
941915970,22310.751489,1777901142.349893,601,-1084,-1596,-3,-1,0,0.293457,-0.529297,-0.779297,-0.183105,-0.061035,0.000000,21.39,1
941916982,22310.751499,1777901142.350905,601,-1088,-1600,-3,-1,0,0.293457,-0.531250,-0.781250,-0.183105,-0.061035,0.000000,21.33,0
941917996,22310.759522,1777901142.351918,604,-1092,-1601,-2,-1,0,0.294922,-0.533203,-0.781738,-0.122070,-0.061035,0.000000,21.35,0
941919008,22310.759539,1777901142.352929,607,-1090,-1596,-2,0,-1,0.296387,-0.532227,-0.779297,-0.122070,0.000000,-0.061035,21.20,0
941920021,22310.759546,1777901142.353942,606,-1088,-1592,-2,-1,0,0.295898,-0.531250,-0.777344,-0.122070,-0.061035,0.000000,21.32,0
941921031,22310.759553,1777901142.354951,604,-1088,-1595,-2,-1,0,0.294922,-0.531250,-0.778809,-0.122070,-0.061035,0.000000,21.35,0
941922045,22310.759559,1777901142.355964,603,-1086,-1597,-2,-1,0,0.294434,-0.530273,-0.779785,-0.122070,-0.061035,0.000000,21.35,0
941923055,22310.759566,1777901142.356974,602,-1086,-1596,-3,-1,0,0.293945,-0.530273,-0.779297,-0.183105,-0.061035,0.000000,21.30,0
941924069,22310.759572,1777901142.357987,601,-1088,-1596,-3,-2,0,0.293457,-0.531250,-0.779297,-0.183105,-0.122070,0.000000,21.32,0
941925082,22310.759578,1777901142.358999,603,-1088,-1593,-3,-2,-1,0.294434,-0.531250,-0.777832,-0.183105,-0.122070,-0.061035,21.35,0
941926100,22310.767613,1777901142.360017,606,-1087,-1592,-4,-1,-1,0.295898,-0.530762,-0.777344,-0.244141,-0.061035,-0.061035,21.32,0
941927106,22310.767627,1777901142.361018,604,-1088,-1593,-4,-1,-1,0.294922,-0.531250,-0.777832,-0.244141,-0.061035,-0.061035,21.35,1
941928119,22310.767638,1777901142.362030,601,-1088,-1592,-3,-1,-2,0.293457,-0.531250,-0.777344,-0.183105,-0.061035,-0.122070,21.68,0
941929130,22310.767647,1777901142.363041,602,-1087,-1592,-3,-3,-1,0.293945,-0.530762,-0.777344,-0.183105,-0.183105,-0.061035,21.35,0
941930141,22310.767656,1777901142.364051,602,-1089,-1593,-3,-3,-1,0.293945,-0.531738,-0.777832,-0.183105,-0.183105,-0.061035,21.33,0
941931155,22310.767666,1777901142.365064,600,-1089,-1594,-4,-2,-1,0.292969,-0.531738,-0.778320,-0.244141,-0.122070,-0.061035,21.39,0
941932167,22310.767675,1777901142.366076,601,-1088,-1596,-4,-1,-1,0.293457,-0.531250,-0.779297,-0.244141,-0.061035,-0.061035,21.35,0
941933178,22310.767685,1777901142.367086,603,-1087,-1598,-4,-1,0,0.294434,-0.530762,-0.780273,-0.244141,-0.061035,0.000000,21.26,0
941934192,22310.775723,1777901142.368099,604,-1085,-1600,-2,-1,0,0.294922,-0.529785,-0.781250,-0.122070,-0.061035,0.000000,21.32,0
941935205,22310.775745,1777901142.369112,603,-1088,-1599,-2,0,0,0.294434,-0.531250,-0.780762,-0.122070,0.000000,0.000000,21.32,0
941936216,22310.775756,1777901142.370122,602,-1092,-1596,-2,-1,0,0.293945,-0.533203,-0.779297,-0.122070,-0.061035,0.000000,21.29,0
941937227,22310.775767,1777901142.371132,603,-1090,-1594,-2,-1,-1,0.294434,-0.532227,-0.778320,-0.122070,-0.061035,-0.061035,21.26,0
941938239,22310.775778,1777901142.372144,604,-1087,-1593,-1,-1,0,0.294922,-0.530762,-0.777832,-0.061035,-0.061035,0.000000,21.14,1
941939253,22310.775788,1777901142.373157,603,-1088,-1592,-2,-1,0,0.294434,-0.531250,-0.777344,-0.122070,-0.061035,0.000000,21.27,0
941940265,22310.775798,1777901142.374168,600,-1086,-1592,-3,-1,-1,0.292969,-0.530273,-0.777344,-0.183105,-0.061035,-0.061035,21.27,0
941941276,22310.775809,1777901142.375179,602,-1086,-1596,-3,-1,-1,0.293945,-0.530273,-0.779297,-0.183105,-0.061035,-0.061035,21.38,0
941942289,22310.783788,1777901142.376194,606,-1086,-1596,-3,-1,-1,0.295898,-0.530273,-0.779297,-0.183105,-0.061035,-0.061035,21.23,0
941943302,22310.783809,1777901142.377207,606,-1086,-1595,-2,-1,0,0.295898,-0.530273,-0.778809,-0.122070,-0.061035,0.000000,21.26,0
941944314,22310.783821,1777901142.378218,605,-1088,-1595,-1,-2,0,0.295410,-0.531250,-0.778809,-0.061035,-0.122070,0.000000,21.24,0
941945327,22310.783833,1777901142.379230,608,-1088,-1595,-2,-1,0,0.296875,-0.531250,-0.778809,-0.122070,-0.061035,0.000000,21.29,0
941946339,22310.783843,1777901142.380242,607,-1088,-1593,-3,-1,0,0.296387,-0.531250,-0.777832,-0.183105,-0.061035,0.000000,21.20,0
941947351,22310.783853,1777901142.381253,604,-1087,-1594,-3,0,-1,0.294922,-0.530762,-0.778320,-0.183105,0.000000,-0.061035,21.33,0
941948362,22310.783863,1777901142.382263,606,-1085,-1597,-3,1,-1,0.295898,-0.529785,-0.779785,-0.183105,0.061035,-0.061035,21.18,0
941949376,22310.783873,1777901142.383277,608,-1084,-1595,-3,0,0,0.296875,-0.529297,-0.778809,-0.183105,0.000000,0.000000,21.26,1
941950387,22310.792228,1777901142.384284,604,-1086,-1592,-3,0,0,0.294922,-0.530273,-0.777344,-0.183105,0.000000,0.000000,21.15,0
941951399,22310.792241,1777901142.385295,599,-1087,-1594,-3,-1,0,0.292480,-0.530762,-0.778320,-0.183105,-0.061035,0.000000,21.20,0
941952413,22310.792248,1777901142.386308,600,-1086,-1598,-2,-1,0,0.292969,-0.530273,-0.780273,-0.122070,-0.061035,0.000000,21.33,0
941953423,22310.792255,1777901142.387317,606,-1082,-1597,-2,-1,-1,0.295898,-0.528320,-0.779785,-0.122070,-0.061035,-0.061035,21.24,0
941954437,22310.792261,1777901142.388331,604,-1083,-1596,-2,-1,-1,0.294922,-0.528809,-0.779297,-0.122070,-0.061035,-0.061035,21.38,0
941955448,22310.792267,1777901142.389341,602,-1086,-1597,-3,-1,-1,0.293945,-0.530273,-0.779785,-0.183105,-0.061035,-0.061035,21.35,0
941956462,22310.792273,1777901142.390354,603,-1088,-1596,-3,0,-1,0.294434,-0.531250,-0.779297,-0.183105,0.000000,-0.061035,21.35,0
941957474,22310.792280,1777901142.391366,603,-1089,-1594,-4,0,0,0.294434,-0.531738,-0.778320,-0.244141,0.000000,0.000000,21.36,0
941958484,22310.799999,1777901142.392375,604,-1087,-1595,-3,-1,0,0.294922,-0.530762,-0.778809,-0.183105,-0.061035,0.000000,21.41,0
941959496,22310.800015,1777901142.393386,604,-1089,-1596,-2,-2,0,0.294922,-0.531738,-0.779297,-0.122070,-0.122070,0.000000,21.44,0
941960511,22310.800021,1777901142.394401,606,-1092,-1595,-3,-2,0,0.295898,-0.533203,-0.778809,-0.183105,-0.122070,0.000000,21.32,1
941961523,22310.800028,1777901142.395412,609,-1089,-1598,-3,-1,1,0.297363,-0.531738,-0.780273,-0.183105,-0.061035,0.061035,21.30,0
941962535,22310.800034,1777901142.396423,606,-1087,-1597,-4,-1,0,0.295898,-0.530762,-0.779785,-0.244141,-0.061035,0.000000,21.23,0
941963547,22310.800041,1777901142.397435,602,-1086,-1592,-3,-1,-1,0.293945,-0.530273,-0.777344,-0.183105,-0.061035,-0.061035,21.20,0
941964561,22310.800047,1777901142.398448,604,-1088,-1592,-2,0,-1,0.294922,-0.531250,-0.777344,-0.122070,0.000000,-0.061035,21.36,0
941965570,22310.800053,1777901142.399456,604,-1090,-1597,-1,-1,-1,0.294922,-0.532227,-0.779785,-0.061035,-0.061035,-0.061035,21.39,0
941966582,22310.808072,1777901142.400468,602,-1090,-1594,-3,-2,-1,0.293945,-0.532227,-0.778320,-0.183105,-0.122070,-0.061035,21.35,0
941967596,22310.808097,1777901142.401481,607,-1088,-1589,-3,-1,0,0.296387,-0.531250,-0.775879,-0.183105,-0.061035,0.000000,21.35,0
941968609,22310.808107,1777901142.402493,606,-1085,-1593,-2,-2,0,0.295898,-0.529785,-0.777832,-0.122070,-0.122070,0.000000,21.24,0
941969620,22310.808116,1777901142.403504,601,-1085,-1597,-1,-1,-1,0.293457,-0.529785,-0.779785,-0.061035,-0.061035,-0.061035,21.35,0
941970634,22310.808124,1777901142.404517,602,-1084,-1596,-2,0,0,0.293945,-0.529297,-0.779297,-0.122070,0.000000,0.000000,21.27,0
941971645,22310.808132,1777901142.405527,604,-1084,-1595,-2,-1,0,0.294922,-0.529297,-0.778809,-0.122070,-0.061035,0.000000,21.23,1
941972656,22310.808140,1777901142.406538,602,-1087,-1597,-2,-1,0,0.293945,-0.530762,-0.779785,-0.122070,-0.061035,0.000000,21.24,0
941973668,22310.808148,1777901142.407549,603,-1086,-1596,-3,-1,0,0.294434,-0.530273,-0.779297,-0.183105,-0.061035,0.000000,21.29,0
941974682,22310.816368,1777901142.408562,605,-1082,-1593,-4,-1,0,0.295410,-0.528320,-0.777832,-0.244141,-0.061035,0.000000,21.18,0
941975694,22310.816383,1777901142.409574,604,-1085,-1595,-4,-1,-1,0.294922,-0.529785,-0.778809,-0.244141,-0.061035,-0.061035,21.20,0
941976706,22310.816390,1777901142.410585,604,-1090,-1595,-3,-1,-1,0.294922,-0.532227,-0.778809,-0.183105,-0.061035,-0.061035,21.27,0
941977717,22310.816397,1777901142.411595,603,-1086,-1595,-3,0,-1,0.294434,-0.530273,-0.778809,-0.183105,0.000000,-0.061035,21.32,0
941978731,22310.816403,1777901142.412609,603,-1084,-1596,-3,-1,-1,0.294434,-0.529297,-0.779297,-0.183105,-0.061035,-0.061035,21.39,0
941979742,22310.816409,1777901142.413619,603,-1087,-1594,-2,-2,-1,0.294434,-0.530762,-0.778320,-0.122070,-0.122070,-0.061035,21.14,0
941980756,22310.816416,1777901142.414632,603,-1088,-1593,-2,-2,0,0.294434,-0.531250,-0.777832,-0.122070,-0.122070,0.000000,21.42,0
941981768,22310.816422,1777901142.415644,605,-1087,-1598,-2,-1,0,0.295410,-0.530762,-0.780273,-0.122070,-0.061035,0.000000,21.24,0
941982780,22310.824263,1777901142.416657,604,-1085,-1602,-3,-1,0,0.294922,-0.529785,-0.782227,-0.183105,-0.061035,0.000000,21.32,1
941983793,22310.824276,1777901142.417669,604,-1086,-1598,-3,-1,0,0.294922,-0.530273,-0.780273,-0.183105,-0.061035,0.000000,21.26,0
941984804,22310.824282,1777901142.418679,605,-1087,-1594,-2,-1,0,0.295410,-0.530762,-0.778320,-0.122070,-0.061035,0.000000,21.36,0
941985817,22310.824289,1777901142.419692,604,-1086,-1596,-2,-1,0,0.294922,-0.530273,-0.779297,-0.122070,-0.061035,0.000000,21.32,0
941986829,22310.824295,1777901142.420703,605,-1088,-1600,-2,-2,0,0.295410,-0.531250,-0.781250,-0.122070,-0.122070,0.000000,21.27,0
941987841,22310.824302,1777901142.421714,604,-1090,-1599,-2,-2,0,0.294922,-0.532227,-0.780762,-0.122070,-0.122070,0.000000,21.23,0
941988852,22310.824308,1777901142.422725,602,-1088,-1594,-2,-2,-1,0.293945,-0.531250,-0.778320,-0.122070,-0.122070,-0.061035,21.29,0
941989865,22310.824315,1777901142.423737,601,-1087,-1594,-2,-1,-1,0.293457,-0.530762,-0.778320,-0.122070,-0.061035,-0.061035,21.26,0
941990878,22310.832377,1777901142.424749,603,-1090,-1595,-2,0,-1,0.294434,-0.532227,-0.778809,-0.122070,0.000000,-0.061035,21.29,0
941991891,22310.832389,1777901142.425762,606,-1092,-1593,-3,0,0,0.295898,-0.533203,-0.777832,-0.183105,0.000000,0.000000,21.24,0
941992901,22310.832395,1777901142.426771,605,-1088,-1593,-2,-1,0,0.295410,-0.531250,-0.777832,-0.122070,-0.061035,0.000000,21.14,0
941993915,22310.832402,1777901142.427782,603,-1087,-1597,-1,-1,0,0.294434,-0.530762,-0.779785,-0.061035,-0.061035,0.000000,21.21,1
941994925,22310.832408,1777901142.428791,606,-1091,-1597,-1,-1,0,0.295898,-0.532715,-0.779785,-0.061035,-0.061035,0.000000,21.24,0
941995939,22310.832415,1777901142.429805,606,-1090,-1596,-2,-1,0,0.295898,-0.532227,-0.779297,-0.122070,-0.061035,0.000000,21.11,0
941996951,22310.832421,1777901142.430816,605,-1087,-1597,-2,-1,0,0.295410,-0.530762,-0.779785,-0.122070,-0.061035,0.000000,21.32,0
941997963,22310.832428,1777901142.431827,605,-1086,-1596,-2,-2,-1,0.295410,-0.530273,-0.779297,-0.122070,-0.122070,-0.061035,21.39,0
941998977,22310.840517,1777901142.432841,605,-1087,-1597,-2,-2,-1,0.295410,-0.530762,-0.779785,-0.122070,-0.122070,-0.061035,21.21,0
941999989,22310.840536,1777901142.433852,603,-1087,-1598,-2,-1,0,0.294434,-0.530762,-0.780273,-0.122070,-0.061035,0.000000,21.38,0
942001002,22310.840544,1777901142.434864,604,-1085,-1597,-2,-1,-1,0.294922,-0.529785,-0.779785,-0.122070,-0.061035,-0.061035,21.26,0
942002013,22310.840550,1777901142.435874,605,-1086,-1592,-2,-2,-1,0.295410,-0.530273,-0.777344,-0.122070,-0.122070,-0.061035,21.35,0
942003025,22310.840565,1777901142.436886,604,-1089,-1589,-2,-2,0,0.294922,-0.531738,-0.775879,-0.122070,-0.122070,0.000000,21.21,0
942004038,22310.840582,1777901142.437898,604,-1089,-1593,-2,-2,0,0.294922,-0.531738,-0.777832,-0.122070,-0.122070,0.000000,21.27,0
942005049,22310.840589,1777901142.438908,604,-1088,-1595,-2,0,0,0.294922,-0.531250,-0.778809,-0.122070,0.000000,0.000000,21.12,1
942006063,22310.840596,1777901142.439922,604,-1089,-1593,-2,0,0,0.294922,-0.531738,-0.777832,-0.122070,0.000000,0.000000,21.14,0
942007072,22310.848564,1777901142.440932,602,-1088,-1591,-3,0,0,0.293945,-0.531250,-0.776855,-0.183105,0.000000,0.000000,21.14,0
942008095,22310.848574,1777901142.441955,601,-1086,-1592,-3,-1,0,0.293457,-0.530273,-0.777344,-0.183105,-0.061035,0.000000,21.27,0
942009104,22310.848580,1777901142.442963,605,-1086,-1597,-2,-1,0,0.295410,-0.530273,-0.779785,-0.122070,-0.061035,0.000000,21.29,0
942010111,22310.848587,1777901142.443969,608,-1087,-1600,-2,-1,1,0.296875,-0.530762,-0.781250,-0.122070,-0.061035,0.061035,21.11,0
942011121,22310.848593,1777901142.444979,608,-1088,-1599,-1,-1,1,0.296875,-0.531250,-0.780762,-0.061035,-0.061035,0.061035,21.24,0
942012134,22310.848599,1777901142.445991,605,-1088,-1595,-1,-2,0,0.295410,-0.531250,-0.778809,-0.061035,-0.122070,0.000000,21.30,0
942013148,22310.848606,1777901142.447004,601,-1087,-1598,-2,-1,-1,0.293457,-0.530762,-0.780273,-0.122070,-0.061035,-0.061035,21.17,0
942014159,22310.848612,1777901142.448015,601,-1086,-1600,-2,-1,-1,0.293457,-0.530273,-0.781250,-0.122070,-0.061035,-0.061035,21.29,0
942015171,22310.856675,1777901142.449026,602,-1089,-1596,-2,-1,0,0.293945,-0.531738,-0.779297,-0.122070,-0.061035,0.000000,21.32,0
942016185,22310.856690,1777901142.450042,603,-1090,-1598,-3,-2,0,0.294434,-0.532227,-0.780273,-0.183105,-0.122070,0.000000,21.35,1
942017195,22310.856700,1777901142.451051,604,-1086,-1600,-3,-2,0,0.294922,-0.530273,-0.781250,-0.183105,-0.122070,0.000000,21.29,0
942018209,22310.856710,1777901142.452065,604,-1085,-1595,-2,-2,0,0.294922,-0.529785,-0.778809,-0.122070,-0.122070,0.000000,21.23,0
942019222,22310.856720,1777901142.453077,604,-1088,-1592,-1,-2,0,0.294922,-0.531250,-0.777344,-0.061035,-0.122070,0.000000,21.12,0
942020234,22310.856730,1777901142.454088,604,-1088,-1592,-1,-1,-1,0.294922,-0.531250,-0.777344,-0.061035,-0.061035,-0.061035,21.36,0
942021246,22310.856810,1777901142.455100,603,-1084,-1594,-1,-1,-1,0.294434,-0.529297,-0.778320,-0.061035,-0.061035,-0.061035,21.32,0
942022259,22310.856820,1777901142.456112,606,-1084,-1597,-2,-1,0,0.295898,-0.529297,-0.779785,-0.122070,-0.061035,0.000000,21.33,0
942023271,22310.865021,1777901142.457123,607,-1085,-1594,-3,-1,-1,0.296387,-0.529785,-0.778320,-0.183105,-0.061035,-0.061035,21.38,0
942024282,22310.865039,1777901142.458134,604,-1087,-1596,-2,-2,0,0.294922,-0.530762,-0.779297,-0.122070,-0.122070,0.000000,21.36,0
942025295,22310.865048,1777901142.459146,604,-1089,-1601,-2,-2,0,0.294922,-0.531738,-0.781738,-0.122070,-0.122070,0.000000,21.21,0
942026305,22310.865057,1777901142.460155,604,-1088,-1599,-3,-2,-1,0.294922,-0.531250,-0.780762,-0.183105,-0.122070,-0.061035,21.15,0
942027320,22310.865065,1777901142.461166,604,-1086,-1594,-3,-2,-1,0.294922,-0.530273,-0.778320,-0.183105,-0.122070,-0.061035,21.38,1
942028330,22310.865073,1777901142.462176,603,-1085,-1595,-2,-1,0,0.294434,-0.529785,-0.778809,-0.122070,-0.061035,0.000000,21.29,0
942029344,22310.865082,1777901142.463189,601,-1087,-1597,-2,-2,0,0.293457,-0.530762,-0.779785,-0.122070,-0.122070,0.000000,21.24,0
942030356,22310.865090,1777901142.464200,601,-1090,-1594,-2,-2,0,0.293457,-0.532227,-0.778320,-0.122070,-0.122070,0.000000,21.26,0
942031367,22310.872958,1777901142.465211,605,-1092,-1594,-3,-1,-1,0.295410,-0.533203,-0.778320,-0.183105,-0.061035,-0.061035,21.35,0
942032380,22310.872973,1777901142.466223,607,-1092,-1592,-2,0,0,0.296387,-0.533203,-0.777344,-0.122070,0.000000,0.000000,21.21,0
942033393,22310.872980,1777901142.467235,605,-1090,-1591,-2,-1,0,0.295410,-0.532227,-0.776855,-0.122070,-0.061035,0.000000,21.29,0
942034404,22310.872987,1777901142.468246,604,-1089,-1598,-2,-2,-1,0.294922,-0.531738,-0.780273,-0.122070,-0.122070,-0.061035,21.27,0
942035418,22310.872994,1777901142.469259,605,-1087,-1601,-2,-1,-1,0.295410,-0.530762,-0.781738,-0.122070,-0.061035,-0.061035,21.32,0
942036429,22310.873000,1777901142.470269,605,-1085,-1598,-3,-1,-1,0.295410,-0.529785,-0.780273,-0.183105,-0.061035,-0.061035,21.27,0
942037443,22310.873025,1777901142.471283,603,-1086,-1592,-3,-1,-1,0.294434,-0.530273,-0.777344,-0.183105,-0.061035,-0.061035,21.27,0
942038454,22310.873031,1777901142.472293,602,-1090,-1589,-3,-2,0,0.293945,-0.532227,-0.775879,-0.183105,-0.122070,0.000000,21.33,1
942039467,22310.880969,1777901142.473303,602,-1092,-1593,-2,-1,0,0.293945,-0.533203,-0.777832,-0.122070,-0.061035,0.000000,21.41,0
942040479,22310.880986,1777901142.474314,601,-1088,-1595,-1,-1,0,0.293457,-0.531250,-0.778809,-0.061035,-0.061035,0.000000,21.29,0
942041490,22310.880997,1777901142.475324,599,-1085,-1592,-2,-2,0,0.292480,-0.529785,-0.777344,-0.122070,-0.122070,0.000000,21.29,0
942042503,22310.881014,1777901142.476336,601,-1085,-1590,-2,-2,0,0.293457,-0.529785,-0.776367,-0.122070,-0.122070,0.000000,21.12,0
942043516,22310.881024,1777901142.477349,607,-1086,-1596,-2,-1,0,0.296387,-0.530273,-0.779297,-0.122070,-0.061035,0.000000,21.12,0
942044528,22310.881034,1777901142.478360,608,-1089,-1601,-2,-1,0,0.296875,-0.531738,-0.781738,-0.122070,-0.061035,0.000000,21.11,0
942045538,22310.881044,1777901142.479369,607,-1090,-1599,-2,-1,0,0.296387,-0.532227,-0.780762,-0.122070,-0.061035,0.000000,21.20,0
942046551,22310.881054,1777901142.480382,604,-1087,-1596,-2,-1,0,0.294922,-0.530762,-0.779297,-0.122070,-0.061035,0.000000,21.33,0
942047566,22310.889075,1777901142.481396,600,-1086,-1596,-2,-1,0,0.292969,-0.530273,-0.779297,-0.122070,-0.061035,0.000000,21.38,0
942048577,22310.889089,1777901142.482406,600,-1087,-1595,-3,-1,0,0.292969,-0.530762,-0.778809,-0.183105,-0.061035,0.000000,21.41,0
942049590,22310.889096,1777901142.483421,602,-1088,-1595,-4,-2,0,0.293945,-0.531250,-0.778809,-0.244141,-0.122070,0.000000,21.24,1
942050600,22310.889103,1777901142.484430,602,-1090,-1597,-4,-2,0,0.293945,-0.532227,-0.779785,-0.244141,-0.122070,0.000000,21.17,0
942051612,22310.889110,1777901142.485441,603,-1085,-1598,-2,-1,0,0.294434,-0.529785,-0.780273,-0.122070,-0.061035,0.000000,21.39,0
942052625,22310.889116,1777901142.486454,606,-1080,-1595,-2,0,1,0.295898,-0.527344,-0.778809,-0.122070,0.000000,0.061035,21.26,0
942053636,22310.889123,1777901142.487464,606,-1085,-1597,-2,-1,0,0.295898,-0.529785,-0.779785,-0.122070,-0.061035,0.000000,21.26,0
942054649,22310.889129,1777901142.488476,603,-1089,-1600,-2,-1,-1,0.294434,-0.531738,-0.781250,-0.122070,-0.061035,-0.061035,21.41,0
942055663,22310.897173,1777901142.489490,600,-1089,-1595,-1,-1,0,0.292969,-0.531738,-0.778809,-0.061035,-0.061035,0.000000,21.20,0
942056674,22310.897192,1777901142.490500,600,-1088,-1596,-2,-1,1,0.292969,-0.531250,-0.779297,-0.122070,-0.061035,0.061035,21.29,0
942057687,22310.897203,1777901142.491512,605,-1087,-1600,-3,-2,1,0.295410,-0.530762,-0.781250,-0.183105,-0.122070,0.061035,21.41,0
942058698,22310.897214,1777901142.492522,606,-1089,-1600,-3,-2,-1,0.295898,-0.531738,-0.781250,-0.183105,-0.122070,-0.061035,21.32,0
942059711,22310.897224,1777901142.493535,601,-1090,-1600,-2,-2,-1,0.293457,-0.532227,-0.781250,-0.122070,-0.122070,-0.061035,21.38,0
942060724,22310.897236,1777901142.494547,602,-1090,-1600,-2,-1,0,0.293945,-0.532227,-0.781250,-0.122070,-0.061035,0.000000,21.29,1
942061735,22310.897250,1777901142.495557,606,-1089,-1599,-3,-1,0,0.295898,-0.531738,-0.780762,-0.183105,-0.061035,0.000000,21.38,0
942062748,22310.897261,1777901142.496570,603,-1088,-1596,-2,-1,0,0.294434,-0.531250,-0.779297,-0.122070,-0.061035,0.000000,21.26,0
942063762,22310.905251,1777901142.497584,600,-1088,-1594,-1,-1,1,0.292969,-0.531250,-0.778320,-0.061035,-0.061035,0.061035,21.38,0
942064774,22310.905269,1777901142.498595,601,-1085,-1592,-2,-1,1,0.293457,-0.529785,-0.777344,-0.122070,-0.061035,0.061035,21.36,0
942065785,22310.905280,1777901142.499606,602,-1085,-1593,-2,-1,0,0.293945,-0.529785,-0.777832,-0.122070,-0.061035,0.000000,21.23,0
942066796,22310.905291,1777901142.500616,603,-1086,-1595,-1,-2,0,0.294434,-0.530273,-0.778809,-0.061035,-0.122070,0.000000,21.30,0
942067811,22310.905301,1777901142.501631,601,-1087,-1598,-1,-1,1,0.293457,-0.530762,-0.780273,-0.061035,-0.061035,0.061035,21.17,0
942068823,22310.905311,1777901142.502642,601,-1089,-1596,-2,-1,1,0.293457,-0.531738,-0.779297,-0.122070,-0.061035,0.061035,21.35,0
942069835,22310.905321,1777901142.503653,603,-1088,-1593,-2,-1,0,0.294434,-0.531250,-0.777832,-0.122070,-0.061035,0.000000,21.14,0
942070845,22310.905331,1777901142.504663,605,-1084,-1599,-1,-1,0,0.295410,-0.529297,-0.780762,-0.061035,-0.061035,0.000000,21.24,0
942071859,22310.913377,1777901142.505677,605,-1085,-1600,-2,-1,0,0.295410,-0.529785,-0.781250,-0.122070,-0.061035,0.000000,21.20,1
942072871,22310.913397,1777901142.506688,601,-1088,-1596,-3,-1,0,0.293457,-0.531250,-0.779297,-0.183105,-0.061035,0.000000,21.20,0
942073884,22310.913405,1777901142.507700,600,-1086,-1596,-3,-1,0,0.292969,-0.530273,-0.779297,-0.183105,-0.061035,0.000000,21.17,0
942074895,22310.913412,1777901142.508710,601,-1085,-1598,-2,-1,0,0.293457,-0.529785,-0.780273,-0.122070,-0.061035,0.000000,21.26,0
942075909,22310.913418,1777901142.509724,601,-1088,-1595,-1,0,-1,0.293457,-0.531250,-0.778809,-0.061035,0.000000,-0.061035,21.27,0
942076921,22310.913425,1777901142.510735,603,-1087,-1593,-2,-1,0,0.294434,-0.530762,-0.777832,-0.122070,-0.061035,0.000000,21.35,0
942077932,22310.913431,1777901142.511745,604,-1086,-1596,-3,-1,1,0.294922,-0.530273,-0.779297,-0.183105,-0.061035,0.061035,21.30,0
942078944,22310.913438,1777901142.512757,602,-1087,-1596,-3,-1,-1,0.293945,-0.530762,-0.779297,-0.183105,-0.061035,-0.061035,21.29,0
942079957,22310.924194,1777901142.513769,603,-1088,-1594,-1,-1,-1,0.294434,-0.531250,-0.778320,-0.061035,-0.061035,-0.061035,21.24,0
942080970,22310.924214,1777901142.514781,605,-1088,-1594,-2,-2,1,0.295410,-0.531250,-0.778320,-0.122070,-0.122070,0.061035,21.29,0
942081982,22310.924225,1777901142.515793,605,-1089,-1595,-3,-2,0,0.295410,-0.531738,-0.778809,-0.183105,-0.122070,0.000000,21.33,0
942082992,22310.924235,1777901142.516801,601,-1091,-1594,-3,-2,0,0.293457,-0.532715,-0.778320,-0.183105,-0.122070,0.000000,21.29,1
942084006,22310.924283,1777901142.517814,601,-1091,-1596,-2,-2,0,0.293457,-0.532715,-0.779297,-0.122070,-0.122070,0.000000,21.32,0
942085018,22310.924382,1777901142.518826,604,-1090,-1598,-2,-1,0,0.294922,-0.532227,-0.780273,-0.122070,-0.061035,0.000000,21.32,0
942086031,22310.924393,1777901142.519838,602,-1090,-1597,-2,-2,0,0.293945,-0.532227,-0.779785,-0.122070,-0.122070,0.000000,21.30,0
942087042,22310.924402,1777901142.520848,601,-1090,-1595,-2,-2,0,0.293457,-0.532227,-0.778809,-0.122070,-0.122070,0.000000,21.26,0
942088056,22310.929765,1777901142.521862,604,-1090,-1597,-2,-2,0,0.294922,-0.532227,-0.779785,-0.122070,-0.122070,0.000000,21.17,0
942089067,22310.929774,1777901142.522872,603,-1089,-1598,-3,-1,-1,0.294434,-0.531738,-0.780273,-0.183105,-0.061035,-0.061035,21.24,0
942090078,22310.929780,1777901142.523882,601,-1086,-1596,-4,-1,0,0.293457,-0.530273,-0.779297,-0.244141,-0.061035,0.000000,21.32,0
942091096,22310.929787,1777901142.524899,602,-1088,-1595,-4,0,1,0.293945,-0.531250,-0.778809,-0.244141,0.000000,0.061035,21.26,0
942092104,22310.929793,1777901142.525907,602,-1091,-1597,-3,-1,1,0.293945,-0.532715,-0.779785,-0.183105,-0.061035,0.061035,21.32,0
942093115,22310.929799,1777901142.526917,600,-1088,-1596,-2,-1,-1,0.292969,-0.531250,-0.779297,-0.122070,-0.061035,-0.061035,21.23,0
942094128,22310.929806,1777901142.527930,600,-1085,-1594,-2,-1,-1,0.292969,-0.529785,-0.778320,-0.122070,-0.061035,-0.061035,21.26,1
942095139,22310.929813,1777901142.528940,600,-1085,-1596,-2,0,-1,0.292969,-0.529785,-0.779297,-0.122070,0.000000,-0.061035,21.33,0
942096154,22310.937664,1777901142.529955,600,-1085,-1596,-2,0,-1,0.292969,-0.529785,-0.779297,-0.122070,0.000000,-0.061035,21.26,0
942097166,22310.937677,1777901142.530966,601,-1086,-1597,-2,-1,0,0.293457,-0.530273,-0.779785,-0.122070,-0.061035,0.000000,21.15,0
942098177,22310.937684,1777901142.531976,603,-1087,-1598,-2,-1,0,0.294434,-0.530762,-0.780273,-0.122070,-0.061035,0.000000,21.32,0
942099190,22310.937690,1777901142.532989,606,-1085,-1595,-3,-2,-1,0.295898,-0.529785,-0.778809,-0.183105,-0.122070,-0.061035,21.27,0
942100203,22310.937697,1777901142.534001,605,-1085,-1593,-3,-1,-1,0.295410,-0.529785,-0.777832,-0.183105,-0.061035,-0.061035,21.32,0
942101214,22310.937703,1777901142.535011,602,-1088,-1593,-2,-1,-1,0.293945,-0.531250,-0.777832,-0.122070,-0.061035,-0.061035,21.17,0
942102226,22310.937710,1777901142.536023,603,-1088,-1596,-2,-1,0,0.294434,-0.531250,-0.779297,-0.122070,-0.061035,0.000000,21.35,0
942103240,22310.937716,1777901142.537036,606,-1086,-1600,-2,-2,0,0.295898,-0.530273,-0.781250,-0.122070,-0.122070,0.000000,21.23,0
942104250,22310.946034,1777901142.538045,606,-1088,-1594,-1,-2,0,0.295898,-0.531250,-0.778320,-0.061035,-0.122070,0.000000,21.29,0
942105262,22310.946056,1777901142.539057,603,-1087,-1592,-1,-2,-1,0.294434,-0.530762,-0.777344,-0.061035,-0.122070,-0.061035,21.17,1
942106276,22310.946067,1777901142.540071,603,-1085,-1595,-3,-1,0,0.294434,-0.529785,-0.778809,-0.183105,-0.061035,0.000000,21.26,0
942107288,22310.946078,1777901142.541082,602,-1085,-1595,-4,-1,0,0.293945,-0.529785,-0.778809,-0.244141,-0.061035,0.000000,21.33,0
942108300,22310.946087,1777901142.542093,601,-1088,-1595,-3,-1,0,0.293457,-0.531250,-0.778809,-0.183105,-0.061035,0.000000,21.30,0
942109311,22310.946098,1777901142.543104,603,-1091,-1596,-1,-1,0,0.294434,-0.532715,-0.779297,-0.061035,-0.061035,0.000000,21.35,0
942110323,22310.946108,1777901142.544115,604,-1092,-1594,-1,0,1,0.294922,-0.533203,-0.778320,-0.061035,0.000000,0.061035,21.20,0
942111336,22310.946117,1777901142.545127,603,-1092,-1594,-1,-1,1,0.294434,-0.533203,-0.778320,-0.061035,-0.061035,0.061035,21.30,0
942112349,22310.953847,1777901142.546139,601,-1090,-1594,-2,-1,0,0.293457,-0.532227,-0.778320,-0.122070,-0.061035,0.000000,21.35,0
942113360,22310.953878,1777901142.547150,604,-1089,-1591,-3,-1,-1,0.294922,-0.531738,-0.776855,-0.183105,-0.061035,-0.061035,21.26,0
942114373,22310.953890,1777901142.548162,605,-1088,-1592,-2,-1,-1,0.295410,-0.531250,-0.777344,-0.122070,-0.061035,-0.061035,21.15,0
942115385,22310.953905,1777901142.549174,602,-1088,-1593,-1,-1,0,0.293945,-0.531250,-0.777832,-0.061035,-0.061035,0.000000,21.20,0
942116397,22310.953921,1777901142.550185,603,-1088,-1593,-2,-1,1,0.294434,-0.531250,-0.777832,-0.122070,-0.061035,0.061035,21.42,1
942117409,22310.953936,1777901142.551196,605,-1090,-1596,-3,-1,0,0.295410,-0.532227,-0.779297,-0.183105,-0.061035,0.000000,21.29,0
942118423,22310.953947,1777901142.552210,602,-1091,-1595,-3,-1,-1,0.293945,-0.532715,-0.778809,-0.183105,-0.061035,-0.061035,21.23,0
942119435,22310.953959,1777901142.553221,601,-1088,-1593,-2,-1,0,0.293457,-0.531250,-0.777832,-0.122070,-0.061035,0.000000,21.38,0
942120447,22310.961958,1777901142.554232,603,-1083,-1596,-2,-1,0,0.294434,-0.528809,-0.779297,-0.122070,-0.061035,0.000000,21.38,0
942121459,22310.961971,1777901142.555243,604,-1084,-1598,-2,-2,0,0.294922,-0.529297,-0.780273,-0.122070,-0.122070,0.000000,21.26,0
942122472,22310.961978,1777901142.556256,606,-1090,-1600,-2,-2,-1,0.295898,-0.532227,-0.781250,-0.122070,-0.122070,-0.061035,21.35,0
942123484,22310.961985,1777901142.557267,604,-1092,-1599,-2,-1,0,0.294922,-0.533203,-0.780762,-0.122070,-0.061035,0.000000,21.14,0
942124494,22310.961991,1777901142.558276,601,-1088,-1596,-2,-1,-1,0.293457,-0.531250,-0.779297,-0.122070,-0.061035,-0.061035,21.29,0
942125509,22310.961998,1777901142.559291,604,-1087,-1597,-3,-2,-1,0.294922,-0.530762,-0.779785,-0.183105,-0.122070,-0.061035,21.36,0
942126520,22310.962008,1777901142.560301,606,-1089,-1599,-2,-2,-1,0.295898,-0.531738,-0.780762,-0.122070,-0.122070,-0.061035,21.23,0
942127532,22310.962015,1777901142.561312,605,-1087,-1597,-2,-2,0,0.295410,-0.530762,-0.779785,-0.122070,-0.122070,0.000000,21.38,1
942128545,22310.970049,1777901142.562326,604,-1087,-1597,-4,-2,1,0.294922,-0.530762,-0.779785,-0.244141,-0.122070,0.061035,21.39,0
942129559,22310.970065,1777901142.563339,603,-1089,-1594,-4,-1,0,0.294434,-0.531738,-0.778320,-0.244141,-0.061035,0.000000,21.15,0
942130570,22310.970072,1777901142.564349,605,-1088,-1591,-2,-1,0,0.295410,-0.531250,-0.776855,-0.122070,-0.061035,0.000000,21.35,0
942131583,22310.970079,1777901142.565362,605,-1086,-1595,-2,0,0,0.295410,-0.530273,-0.778809,-0.122070,0.000000,0.000000,21.27,0
942132594,22310.970085,1777901142.566372,604,-1086,-1597,-3,0,0,0.294922,-0.530273,-0.779785,-0.183105,0.000000,0.000000,21.30,0
942133605,22310.970092,1777901142.567383,604,-1089,-1595,-3,0,0,0.294922,-0.531738,-0.778809,-0.183105,0.000000,0.000000,21.38,0
942134619,22310.970098,1777901142.568396,602,-1089,-1595,-2,-1,0,0.293945,-0.531738,-0.778809,-0.122070,-0.061035,0.000000,21.35,0
942135630,22310.970104,1777901142.569406,600,-1086,-1594,-2,-2,0,0.292969,-0.530273,-0.778320,-0.122070,-0.122070,0.000000,21.15,0
942136644,22310.978140,1777901142.570420,602,-1087,-1592,-3,-2,0,0.293945,-0.530762,-0.777344,-0.183105,-0.122070,0.000000,21.39,0
942137654,22310.978157,1777901142.571429,604,-1087,-1590,-3,-2,-1,0.294922,-0.530762,-0.776367,-0.183105,-0.122070,-0.061035,21.35,0
942138668,22310.978168,1777901142.572442,603,-1086,-1590,-2,-2,0,0.294434,-0.530273,-0.776367,-0.122070,-0.122070,0.000000,21.29,1
942139680,22310.978179,1777901142.573453,601,-1085,-1593,-3,-2,0,0.293457,-0.529785,-0.777832,-0.183105,-0.122070,0.000000,21.30,0
942140691,22310.978189,1777901142.574464,602,-1085,-1597,-3,-1,0,0.293945,-0.529785,-0.779785,-0.183105,-0.061035,0.000000,21.18,0
942141704,22310.978200,1777901142.575476,604,-1087,-1596,-3,-2,0,0.294922,-0.530762,-0.779297,-0.183105,-0.122070,0.000000,21.27,0
942142715,22310.978239,1777901142.576486,604,-1086,-1595,-3,-2,-1,0.294922,-0.530273,-0.778809,-0.183105,-0.122070,-0.061035,21.18,0
942143729,22310.978249,1777901142.577500,605,-1087,-1598,-2,-1,-1,0.295410,-0.530762,-0.780273,-0.122070,-0.061035,-0.061035,21.23,0
942144740,22310.986230,1777901142.578510,605,-1089,-1599,-2,0,0,0.295410,-0.531738,-0.780762,-0.122070,0.000000,0.000000,21.35,0
942145755,22310.986242,1777901142.579524,604,-1090,-1596,-2,-1,1,0.294922,-0.532227,-0.779297,-0.122070,-0.061035,0.061035,21.35,0
942146765,22310.986248,1777901142.580534,604,-1090,-1593,-2,-2,0,0.294922,-0.532227,-0.777832,-0.122070,-0.122070,0.000000,21.35,0
942147778,22310.986290,1777901142.581546,605,-1088,-1595,-3,-2,-1,0.295410,-0.531250,-0.778809,-0.183105,-0.122070,-0.061035,21.20,0
942148789,22310.986297,1777901142.582556,603,-1084,-1599,-3,-1,-1,0.294434,-0.529297,-0.780762,-0.183105,-0.061035,-0.061035,21.29,0
942149802,22310.986304,1777901142.583569,603,-1085,-1596,-2,-1,0,0.294434,-0.529785,-0.779297,-0.122070,-0.061035,0.000000,21.26,1
942150815,22310.986311,1777901142.584581,607,-1090,-1592,-2,-1,-1,0.296387,-0.532227,-0.777344,-0.122070,-0.061035,-0.061035,21.30,0
942151826,22310.986317,1777901142.585591,607,-1089,-1593,-2,-1,-1,0.296387,-0.531738,-0.777832,-0.122070,-0.061035,-0.061035,21.41,0
942152839,22310.994380,1777901142.586603,603,-1087,-1597,-3,-1,-1,0.294434,-0.530762,-0.779785,-0.183105,-0.061035,-0.061035,21.17,0
942153852,22310.994393,1777901142.587615,601,-1090,-1597,-2,-1,-1,0.293457,-0.532227,-0.779785,-0.122070,-0.061035,-0.061035,21.18,0
942154862,22310.994399,1777901142.588625,603,-1090,-1594,-3,0,-1,0.294434,-0.532227,-0.778320,-0.183105,0.000000,-0.061035,21.12,0
942155875,22310.994406,1777901142.589637,606,-1090,-1593,-3,0,0,0.295898,-0.532227,-0.777832,-0.183105,0.000000,0.000000,21.26,0
942156889,22310.994413,1777901142.590651,607,-1091,-1595,-3,-1,0,0.296387,-0.532715,-0.778809,-0.183105,-0.061035,0.000000,21.38,0
942157900,22310.994419,1777901142.591661,604,-1088,-1597,-2,-2,-2,0.294922,-0.531250,-0.779785,-0.122070,-0.122070,-0.122070,21.33,0
942158911,22310.994426,1777901142.592671,601,-1085,-1595,-2,-1,-1,0.293457,-0.529785,-0.778809,-0.122070,-0.061035,-0.061035,21.35,0
942159926,22310.994432,1777901142.593686,600,-1088,-1596,-2,-1,0,0.292969,-0.531250,-0.779297,-0.122070,-0.061035,0.000000,21.29,0
942160937,22311.002463,1777901142.594695,599,-1090,-1596,-3,-1,0,0.292480,-0.532227,-0.779297,-0.183105,-0.061035,0.000000,21.38,1
942161950,22311.002476,1777901142.595707,599,-1089,-1596,-2,-1,-1,0.292480,-0.531738,-0.779297,-0.122070,-0.061035,-0.061035,21.14,0
942162963,22311.002483,1777901142.596719,602,-1088,-1594,-2,-1,-1,0.293945,-0.531250,-0.778320,-0.122070,-0.061035,-0.061035,21.14,0
942163975,22311.002490,1777901142.597731,602,-1087,-1595,-3,0,1,0.293945,-0.530762,-0.778809,-0.183105,0.000000,0.061035,21.27,0
942164986,22311.002496,1777901142.598741,598,-1085,-1595,-4,0,1,0.291992,-0.529785,-0.778809,-0.244141,0.000000,0.061035,21.41,0
942165997,22311.002503,1777901142.599751,598,-1086,-1593,-3,-2,0,0.291992,-0.530273,-0.777832,-0.183105,-0.122070,0.000000,21.29,0
942167012,22311.002509,1777901142.600766,601,-1084,-1591,-2,-2,-1,0.293457,-0.529297,-0.776855,-0.122070,-0.122070,-0.061035,21.32,0
942168023,22311.002516,1777901142.601776,604,-1087,-1592,-2,-2,-1,0.294922,-0.530762,-0.777344,-0.122070,-0.122070,-0.061035,21.26,0
942169035,22311.010523,1777901142.602787,603,-1093,-1593,-2,-1,-1,0.294434,-0.533691,-0.777832,-0.122070,-0.061035,-0.061035,21.44,0
942170047,22311.010545,1777901142.603799,602,-1091,-1593,-3,-1,0,0.293945,-0.532715,-0.777832,-0.183105,-0.061035,0.000000,21.41,0
942171059,22311.010556,1777901142.604810,605,-1086,-1594,-3,-1,1,0.295410,-0.530273,-0.778320,-0.183105,-0.061035,0.061035,21.21,0
942172071,22311.010566,1777901142.605823,607,-1086,-1595,-3,-1,0,0.296387,-0.530273,-0.778809,-0.183105,-0.061035,0.000000,21.24,1
942173095,22311.010576,1777901142.606846,605,-1086,-1596,-4,-1,-1,0.295410,-0.530273,-0.779297,-0.244141,-0.061035,-0.061035,21.17,0
942174101,22311.010586,1777901142.607852,602,-1086,-1599,-4,-1,-1,0.293945,-0.530273,-0.780762,-0.244141,-0.061035,-0.061035,21.18,0
942175109,22311.010596,1777901142.608859,601,-1086,-1595,-3,-1,-1,0.293457,-0.530273,-0.778809,-0.183105,-0.061035,-0.061035,21.32,0
942176120,22311.010605,1777901142.609869,604,-1088,-1591,-3,-1,-1,0.294922,-0.531250,-0.776855,-0.183105,-0.061035,-0.061035,21.24,0
942177134,22311.018631,1777901142.610883,605,-1090,-1594,-3,-1,0,0.295410,-0.532227,-0.778320,-0.183105,-0.061035,0.000000,21.20,0
942178146,22311.018642,1777901142.611894,603,-1092,-1596,-3,-1,0,0.294434,-0.533203,-0.779297,-0.183105,-0.061035,0.000000,21.20,0
942179158,22311.018648,1777901142.612906,602,-1091,-1594,-2,-1,-1,0.293945,-0.532715,-0.778320,-0.122070,-0.061035,-0.061035,21.35,0
942180171,22311.018655,1777901142.613918,602,-1088,-1594,-2,-1,-1,0.293945,-0.531250,-0.778320,-0.122070,-0.061035,-0.061035,21.38,0
942181183,22311.018661,1777901142.614929,605,-1088,-1594,-1,-1,0,0.295410,-0.531250,-0.778320,-0.061035,-0.061035,0.000000,21.15,0
942182195,22311.018668,1777901142.615940,605,-1089,-1594,-1,-1,0,0.295410,-0.531738,-0.778320,-0.061035,-0.061035,0.000000,21.32,0
942183208,22311.018674,1777901142.616953,602,-1087,-1594,-2,-1,0,0.293945,-0.530762,-0.778320,-0.122070,-0.061035,0.000000,21.32,1
942184218,22311.018681,1777901142.617962,603,-1087,-1596,-4,-1,0,0.294434,-0.530762,-0.779297,-0.244141,-0.061035,0.000000,21.18,0
942185232,22311.026741,1777901142.618975,604,-1090,-1597,-4,-1,-1,0.294922,-0.532227,-0.779785,-0.244141,-0.061035,-0.061035,21.09,0
942186243,22311.026756,1777901142.619986,604,-1088,-1595,-3,0,0,0.294922,-0.531250,-0.778809,-0.183105,0.000000,0.000000,21.26,0
942187255,22311.026763,1777901142.620997,605,-1089,-1595,-2,-2,0,0.295410,-0.531738,-0.778809,-0.122070,-0.122070,0.000000,21.23,0
942188269,22311.026771,1777901142.622010,606,-1089,-1596,-3,-2,0,0.295898,-0.531738,-0.779297,-0.183105,-0.122070,0.000000,21.11,0
942189281,22311.026820,1777901142.623022,604,-1086,-1596,-3,-1,-1,0.294922,-0.530273,-0.779297,-0.183105,-0.061035,-0.061035,21.20,0
942190292,22311.026831,1777901142.624032,602,-1088,-1597,-3,-1,0,0.293945,-0.531250,-0.779785,-0.183105,-0.061035,0.000000,21.11,0
942191306,22311.026840,1777901142.625045,603,-1089,-1595,-3,-1,0,0.294434,-0.531738,-0.778809,-0.183105,-0.061035,0.000000,21.26,0
942192317,22311.026848,1777901142.626055,601,-1086,-1593,-4,-1,0,0.293457,-0.530273,-0.777832,-0.244141,-0.061035,0.000000,21.33,0
942193331,22311.034834,1777901142.627069,601,-1088,-1593,-3,-1,0,0.293457,-0.531250,-0.777832,-0.183105,-0.061035,0.000000,21.35,0
942194343,22311.034848,1777901142.628080,603,-1090,-1594,-3,-1,1,0.294434,-0.532227,-0.778320,-0.183105,-0.061035,0.061035,21.29,1
942195355,22311.034859,1777901142.629092,602,-1087,-1592,-3,-1,0,0.293945,-0.530762,-0.777344,-0.183105,-0.061035,0.000000,21.23,0
942196365,22311.034869,1777901142.630101,603,-1087,-1591,-3,0,-1,0.294434,-0.530762,-0.776855,-0.183105,0.000000,-0.061035,21.26,0
942197377,22311.034877,1777901142.631112,603,-1088,-1595,-2,0,-1,0.294434,-0.531250,-0.778809,-0.122070,0.000000,-0.061035,21.15,0
942198391,22311.034884,1777901142.632125,603,-1091,-1596,-2,-1,0,0.294434,-0.532715,-0.779297,-0.122070,-0.061035,0.000000,21.26,0
942199403,22311.034891,1777901142.633137,604,-1092,-1598,-3,-2,-1,0.294922,-0.533203,-0.780273,-0.183105,-0.122070,-0.061035,21.38,0
942200414,22311.034897,1777901142.634147,603,-1091,-1603,-3,-2,-1,0.294434,-0.532715,-0.782715,-0.183105,-0.122070,-0.061035,21.29,0
942201426,22311.042925,1777901142.635159,602,-1088,-1598,-2,-2,-1,0.293945,-0.531250,-0.780273,-0.122070,-0.122070,-0.061035,21.38,0
942202440,22311.042940,1777901142.636172,603,-1088,-1594,-3,-1,-1,0.294434,-0.531250,-0.778320,-0.183105,-0.061035,-0.061035,21.29,0
942203453,22311.042947,1777901142.637184,607,-1091,-1597,-4,0,-1,0.296387,-0.532715,-0.779785,-0.244141,0.000000,-0.061035,21.38,0
942204463,22311.042954,1777901142.638193,609,-1090,-1594,-4,0,-1,0.297363,-0.532227,-0.778320,-0.244141,0.000000,-0.061035,21.30,0
942205478,22311.042961,1777901142.639208,606,-1088,-1597,-4,-1,-1,0.295898,-0.531250,-0.779785,-0.244141,-0.061035,-0.061035,21.14,1
942206489,22311.042969,1777901142.640218,603,-1090,-1599,-3,-1,-1,0.294434,-0.532227,-0.780762,-0.183105,-0.061035,-0.061035,21.20,0
942207501,22311.042976,1777901142.641229,603,-1089,-1595,-2,-1,-1,0.294434,-0.531738,-0.778809,-0.122070,-0.061035,-0.061035,21.35,0
942208512,22311.042983,1777901142.642240,603,-1085,-1594,-1,-1,-2,0.294434,-0.529785,-0.778320,-0.061035,-0.061035,-0.122070,21.26,0
942209527,22311.051031,1777901142.643254,603,-1086,-1595,-3,-1,-2,0.294434,-0.530273,-0.778809,-0.183105,-0.061035,-0.122070,21.14,0
942210538,22311.051077,1777901142.644264,604,-1089,-1595,-3,0,-1,0.294922,-0.531738,-0.778809,-0.183105,0.000000,-0.061035,21.21,0
942211551,22311.051084,1777901142.645277,605,-1089,-1594,-3,-1,-1,0.295410,-0.531738,-0.778320,-0.183105,-0.061035,-0.061035,21.26,0
942212562,22311.051091,1777901142.646287,604,-1087,-1592,-2,-2,0,0.294922,-0.530762,-0.777344,-0.122070,-0.122070,0.000000,21.26,0
942213574,22311.051097,1777901142.647298,605,-1085,-1592,-2,-2,0,0.295410,-0.529785,-0.777344,-0.122070,-0.122070,0.000000,21.15,0
942214586,22311.051104,1777901142.648310,606,-1087,-1591,-2,-1,-1,0.295898,-0.530762,-0.776855,-0.122070,-0.061035,-0.061035,21.35,0
942215600,22311.051110,1777901142.649323,604,-1091,-1592,-3,-1,-1,0.294922,-0.532715,-0.777344,-0.183105,-0.061035,-0.061035,21.23,0
942216612,22311.051117,1777901142.650334,601,-1091,-1592,-3,-2,-1,0.293457,-0.532715,-0.777344,-0.183105,-0.122070,-0.061035,21.07,1
942217625,22311.059121,1777901142.651347,602,-1090,-1591,-2,-1,-1,0.293945,-0.532227,-0.776855,-0.122070,-0.061035,-0.061035,21.30,0
942218635,22311.059133,1777901142.652356,605,-1089,-1593,-3,0,-1,0.295410,-0.531738,-0.777832,-0.183105,0.000000,-0.061035,21.23,0
942219647,22311.059140,1777901142.653367,606,-1088,-1598,-3,0,-1,0.295898,-0.531250,-0.780273,-0.183105,0.000000,-0.061035,21.36,0
942220661,22311.059147,1777901142.654381,605,-1086,-1599,-3,-1,-1,0.295410,-0.530273,-0.780762,-0.183105,-0.061035,-0.061035,21.44,0
942221673,22311.059154,1777901142.655392,604,-1086,-1595,-2,-2,-1,0.294922,-0.530273,-0.778809,-0.122070,-0.122070,-0.061035,21.29,0
942222684,22311.059160,1777901142.656402,604,-1087,-1594,-3,-2,-1,0.294922,-0.530762,-0.778320,-0.183105,-0.122070,-0.061035,21.33,0
942223698,22311.059167,1777901142.657416,604,-1087,-1598,-3,-2,-1,0.294922,-0.530762,-0.780273,-0.183105,-0.122070,-0.061035,21.33,0
942224710,22311.059174,1777901142.658427,606,-1088,-1598,-3,-2,-1,0.295898,-0.531250,-0.780273,-0.183105,-0.122070,-0.061035,21.20,0
942225722,22311.067219,1777901142.659438,608,-1088,-1592,-2,-1,-1,0.296875,-0.531250,-0.777344,-0.122070,-0.061035,-0.061035,21.24,0
942226735,22311.067302,1777901142.660451,606,-1086,-1593,-2,0,0,0.295898,-0.530273,-0.777832,-0.122070,0.000000,0.000000,21.29,0
942227747,22311.067313,1777901142.661463,604,-1085,-1596,-3,-1,0,0.294922,-0.529785,-0.779297,-0.183105,-0.061035,0.000000,21.26,1
942228758,22311.067327,1777901142.662473,601,-1086,-1597,-3,-2,-1,0.293457,-0.530273,-0.779785,-0.183105,-0.122070,-0.061035,21.23,0
942229772,22311.067337,1777901142.663487,601,-1087,-1598,-4,-1,-1,0.293457,-0.530762,-0.780273,-0.244141,-0.061035,-0.061035,21.35,0
942230784,22311.067347,1777901142.664498,605,-1088,-1595,-3,0,-1,0.295410,-0.531250,-0.778809,-0.183105,0.000000,-0.061035,21.24,0
942231796,22311.067356,1777901142.665509,607,-1088,-1593,-2,-1,-1,0.296387,-0.531250,-0.777832,-0.122070,-0.061035,-0.061035,21.35,0
942232806,22311.067366,1777901142.666519,603,-1085,-1597,-3,-2,-2,0.294434,-0.529785,-0.779785,-0.183105,-0.122070,-0.122070,21.18,0
942233819,22311.075369,1777901142.667531,602,-1085,-1596,-3,-2,-1,0.293945,-0.529785,-0.779297,-0.183105,-0.122070,-0.061035,21.26,0
942234833,22311.075386,1777901142.668544,605,-1086,-1594,-3,-1,0,0.295410,-0.530273,-0.778320,-0.183105,-0.061035,0.000000,21.24,0
942235846,22311.075393,1777901142.669557,604,-1086,-1593,-4,-1,0,0.294922,-0.530273,-0.777832,-0.244141,-0.061035,0.000000,21.30,0
942236856,22311.075400,1777901142.670566,602,-1088,-1592,-3,-2,-1,0.293945,-0.531250,-0.777344,-0.183105,-0.122070,-0.061035,21.26,0
942237869,22311.075406,1777901142.671578,601,-1091,-1593,-1,-2,-1,0.293457,-0.532715,-0.777832,-0.061035,-0.122070,-0.061035,21.35,0
942238880,22311.075413,1777901142.672589,602,-1089,-1594,-1,-1,-1,0.293945,-0.531738,-0.778320,-0.061035,-0.061035,-0.061035,21.38,1
942239893,22311.075420,1777901142.673601,605,-1084,-1595,-3,-1,-1,0.295410,-0.529297,-0.778809,-0.183105,-0.061035,-0.061035,21.33,0
942240907,22311.075427,1777901142.674614,606,-1084,-1595,-3,-2,-1,0.295898,-0.529297,-0.778809,-0.183105,-0.122070,-0.061035,21.18,0
942241918,22311.083440,1777901142.675626,602,-1088,-1595,-3,-1,-1,0.293945,-0.531250,-0.778809,-0.183105,-0.061035,-0.061035,21.29,0
942242929,22311.083458,1777901142.676636,603,-1087,-1600,-3,0,0,0.294434,-0.530762,-0.781250,-0.183105,0.000000,0.000000,21.29,0
942243942,22311.083465,1777901142.677649,606,-1087,-1603,-3,-1,0,0.295898,-0.530762,-0.782715,-0.183105,-0.061035,0.000000,21.12,0
942244955,22311.083472,1777901142.678661,604,-1088,-1601,-3,-1,-1,0.294922,-0.531250,-0.781738,-0.183105,-0.061035,-0.061035,21.18,0
942245966,22311.083479,1777901142.679671,602,-1089,-1600,-3,-1,-2,0.293945,-0.531738,-0.781250,-0.183105,-0.061035,-0.122070,21.23,0
942246978,22311.083486,1777901142.680682,602,-1090,-1596,-3,-1,-1,0.293945,-0.532227,-0.779297,-0.183105,-0.061035,-0.061035,21.32,0
942247990,22311.083492,1777901142.681694,602,-1089,-1593,-3,-1,0,0.293945,-0.531738,-0.777832,-0.183105,-0.061035,0.000000,21.20,0
942249005,22311.083499,1777901142.682708,603,-1088,-1598,-3,-1,0,0.294434,-0.531250,-0.780273,-0.183105,-0.061035,0.000000,21.33,0
942250015,22311.091520,1777901142.683717,602,-1092,-1596,-3,-1,-1,0.293945,-0.533203,-0.779297,-0.183105,-0.061035,-0.061035,21.29,1
942251027,22311.091541,1777901142.684728,602,-1093,-1592,-4,-1,-1,0.293945,-0.533691,-0.777344,-0.244141,-0.061035,-0.061035,21.29,0
942252041,22311.091551,1777901142.685742,604,-1091,-1597,-4,-1,0,0.294922,-0.532715,-0.779785,-0.244141,-0.061035,0.000000,21.30,0
942253053,22311.091558,1777901142.686753,606,-1087,-1597,-3,-1,0,0.295898,-0.530762,-0.779785,-0.183105,-0.061035,0.000000,21.26,0
942254065,22311.091565,1777901142.687764,607,-1085,-1594,-1,-1,-1,0.296387,-0.529785,-0.778320,-0.061035,-0.061035,-0.061035,21.21,0
942255078,22311.091572,1777901142.688777,606,-1086,-1595,-1,0,-1,0.295898,-0.530273,-0.778809,-0.061035,0.000000,-0.061035,21.32,0
942256096,22311.091579,1777901142.689794,603,-1086,-1594,-2,0,-1,0.294434,-0.530273,-0.778320,-0.122070,0.000000,-0.061035,21.38,0
942257103,22311.091585,1777901142.690800,601,-1089,-1596,-4,-1,-1,0.293457,-0.531738,-0.779297,-0.244141,-0.061035,-0.061035,21.21,0
942258115,22311.099629,1777901142.691812,602,-1091,-1598,-4,-1,-1,0.293945,-0.532715,-0.780273,-0.244141,-0.061035,-0.061035,21.18,0
942259126,22311.099652,1777901142.692822,601,-1087,-1598,-3,-1,-1,0.293457,-0.530762,-0.780273,-0.183105,-0.061035,-0.061035,21.26,0
942260137,22311.099663,1777901142.693832,601,-1085,-1599,-3,0,-1,0.293457,-0.529785,-0.780762,-0.183105,0.000000,-0.061035,21.32,0
942261149,22311.099675,1777901142.694843,602,-1088,-1599,-3,0,-1,0.293945,-0.531250,-0.780762,-0.183105,0.000000,-0.061035,21.18,1
942262164,22311.099683,1777901142.695858,602,-1089,-1597,-3,0,0,0.293945,-0.531738,-0.779785,-0.183105,0.000000,0.000000,21.24,0
942263174,22311.099689,1777901142.696867,603,-1088,-1595,-2,-1,0,0.294434,-0.531250,-0.778809,-0.122070,-0.061035,0.000000,21.12,0
942264186,22311.099696,1777901142.697878,604,-1086,-1596,-3,-1,-1,0.294922,-0.530273,-0.779297,-0.183105,-0.061035,-0.061035,21.41,0
942265201,22311.099703,1777901142.698893,603,-1087,-1595,-4,0,-1,0.294434,-0.530762,-0.778809,-0.244141,0.000000,-0.061035,21.32,0
942266213,22311.107727,1777901142.699904,602,-1090,-1594,-4,-1,-1,0.293945,-0.532227,-0.778320,-0.244141,-0.061035,-0.061035,21.29,0
942267223,22311.107746,1777901142.700913,602,-1091,-1593,-3,-2,-1,0.293945,-0.532715,-0.777832,-0.183105,-0.122070,-0.061035,21.39,0
942268237,22311.107757,1777901142.701927,605,-1089,-1594,-3,-2,-1,0.295410,-0.531738,-0.778320,-0.183105,-0.122070,-0.061035,21.23,0
942269248,22311.107768,1777901142.702937,607,-1087,-1593,-3,-1,-1,0.296387,-0.530762,-0.777832,-0.183105,-0.061035,-0.061035,21.33,0
942270260,22311.107778,1777901142.703948,606,-1087,-1591,-3,0,-1,0.295898,-0.530762,-0.776855,-0.183105,0.000000,-0.061035,21.35,0
942271272,22311.107788,1777901142.704960,609,-1087,-1596,-4,0,-1,0.297363,-0.530762,-0.779297,-0.244141,0.000000,-0.061035,21.26,0
942272286,22311.107799,1777901142.705973,609,-1090,-1600,-3,0,-1,0.297363,-0.532227,-0.781250,-0.183105,0.000000,-0.061035,21.38,1
942273298,22311.107848,1777901142.706984,604,-1091,-1599,-3,0,-1,0.294922,-0.532715,-0.780762,-0.183105,0.000000,-0.061035,21.24,0
942274311,22311.115815,1777901142.707997,599,-1088,-1599,-3,-1,-1,0.292480,-0.531250,-0.780762,-0.183105,-0.061035,-0.061035,21.42,0
942275321,22311.115839,1777901142.709006,599,-1086,-1600,-3,-1,-2,0.292480,-0.530273,-0.781250,-0.183105,-0.061035,-0.122070,21.36,0
942276334,22311.115849,1777901142.710019,603,-1087,-1597,-3,-1,-2,0.294434,-0.530762,-0.779785,-0.183105,-0.061035,-0.122070,21.20,0
942277346,22311.115859,1777901142.711030,604,-1088,-1595,-4,-1,-1,0.294922,-0.531250,-0.778809,-0.244141,-0.061035,-0.061035,21.30,0
942278359,22311.115878,1777901142.712042,605,-1086,-1596,-5,-1,0,0.295410,-0.530273,-0.779297,-0.305176,-0.061035,0.000000,21.39,0
942279372,22311.115893,1777901142.713055,605,-1086,-1593,-3,-1,0,0.295410,-0.530273,-0.777832,-0.183105,-0.061035,0.000000,21.23,0
942280385,22311.115902,1777901142.714067,600,-1091,-1592,-1,-1,-1,0.292969,-0.532715,-0.777344,-0.061035,-0.061035,-0.061035,21.26,0
942281396,22311.115910,1777901142.715077,600,-1093,-1595,-2,-1,-1,0.292969,-0.533691,-0.778809,-0.122070,-0.061035,-0.061035,21.20,0
942282408,22311.123911,1777901142.716089,602,-1091,-1596,-3,-1,-1,0.293945,-0.532715,-0.779297,-0.183105,-0.061035,-0.061035,21.35,0
942283421,22311.123937,1777901142.717102,602,-1091,-1598,-3,-1,0,0.293945,-0.532715,-0.780273,-0.183105,-0.061035,0.000000,21.36,1
942284433,22311.123949,1777901142.718113,602,-1092,-1599,-3,-1,0,0.293945,-0.533203,-0.780762,-0.183105,-0.061035,0.000000,21.15,0
942285444,22311.123960,1777901142.719123,602,-1090,-1597,-4,-2,0,0.293945,-0.532227,-0.779785,-0.244141,-0.122070,0.000000,21.32,0
942286458,22311.123971,1777901142.720136,602,-1087,-1596,-3,-1,-1,0.293945,-0.530762,-0.779297,-0.183105,-0.061035,-0.061035,21.41,0
942287469,22311.123981,1777901142.721147,602,-1086,-1596,-2,0,-1,0.293945,-0.530273,-0.779297,-0.122070,0.000000,-0.061035,21.32,0
942288483,22311.123991,1777901142.722160,602,-1089,-1594,-2,0,0,0.293945,-0.531738,-0.778320,-0.122070,0.000000,0.000000,21.18,0
942289495,22311.124007,1777901142.723171,600,-1089,-1590,-3,-1,1,0.292969,-0.531738,-0.776367,-0.183105,-0.061035,0.061035,21.38,0
942290506,22311.132008,1777901142.724182,602,-1086,-1590,-4,0,0,0.293945,-0.530273,-0.776367,-0.244141,0.000000,0.000000,21.26,0
942291519,22311.132034,1777901142.725194,605,-1086,-1596,-3,0,-1,0.295410,-0.530273,-0.779297,-0.183105,0.000000,-0.061035,21.29,0
942292532,22311.132042,1777901142.726207,604,-1090,-1596,-2,-1,0,0.294922,-0.532227,-0.779297,-0.122070,-0.061035,0.000000,21.18,0
942293544,22311.132049,1777901142.727218,602,-1089,-1594,-2,-1,0,0.293945,-0.531738,-0.778320,-0.122070,-0.061035,0.000000,21.23,0
942294557,22311.132056,1777901142.728230,602,-1087,-1595,-3,-1,-1,0.293945,-0.530762,-0.778809,-0.183105,-0.061035,-0.061035,21.39,1
942295568,22311.132063,1777901142.729240,601,-1088,-1596,-3,-2,0,0.293457,-0.531250,-0.779297,-0.183105,-0.122070,0.000000,21.21,0
942296581,22311.132070,1777901142.730253,602,-1090,-1598,-3,-2,0,0.293945,-0.532227,-0.780273,-0.183105,-0.122070,0.000000,21.33,0
942297592,22311.132076,1777901142.731263,606,-1091,-1595,-3,0,-1,0.295898,-0.532715,-0.778809,-0.183105,0.000000,-0.061035,21.20,0
942298605,22311.140119,1777901142.732275,607,-1087,-1593,-3,0,-1,0.296387,-0.530762,-0.777832,-0.183105,0.000000,-0.061035,21.26,0
942299616,22311.140136,1777901142.733286,604,-1086,-1599,-3,0,-1,0.294922,-0.530273,-0.780762,-0.183105,0.000000,-0.061035,21.24,0
942300628,22311.140143,1777901142.734297,602,-1087,-1601,-3,-1,-1,0.293945,-0.530762,-0.781738,-0.183105,-0.061035,-0.061035,21.20,0
942301641,22311.140150,1777901142.735309,605,-1086,-1597,-3,0,-1,0.295410,-0.530273,-0.779785,-0.183105,0.000000,-0.061035,21.41,0
942302653,22311.140157,1777901142.736320,604,-1086,-1595,-3,0,0,0.294922,-0.530273,-0.778809,-0.183105,0.000000,0.000000,21.23,0
942303665,22311.140164,1777901142.737332,601,-1087,-1594,-4,-1,0,0.293457,-0.530762,-0.778320,-0.244141,-0.061035,0.000000,21.35,0
942304679,22311.140170,1777901142.738345,602,-1087,-1594,-4,0,0,0.293945,-0.530762,-0.778320,-0.244141,0.000000,0.000000,21.21,0
942305691,22311.140177,1777901142.739357,602,-1088,-1595,-4,-1,0,0.293945,-0.531250,-0.778809,-0.244141,-0.061035,0.000000,21.18,1
942306703,22311.148222,1777901142.740367,600,-1089,-1595,-2,-1,-1,0.292969,-0.531738,-0.778809,-0.122070,-0.061035,-0.061035,21.32,0
942307713,22311.148240,1777901142.741377,601,-1090,-1597,-3,-2,-1,0.293457,-0.532227,-0.779785,-0.183105,-0.122070,-0.061035,21.32,0
942308728,22311.148248,1777901142.742391,602,-1088,-1600,-4,-1,0,0.293945,-0.531250,-0.781250,-0.244141,-0.061035,0.000000,21.39,0
942309738,22311.148255,1777901142.743400,602,-1086,-1602,-3,0,-1,0.293945,-0.530273,-0.782227,-0.183105,0.000000,-0.061035,21.41,0
942310750,22311.148262,1777901142.744411,600,-1090,-1599,-3,-1,-1,0.292969,-0.532227,-0.780762,-0.183105,-0.061035,-0.061035,21.50,0
942311764,22311.148269,1777901142.745425,600,-1091,-1594,-3,-2,0,0.292969,-0.532715,-0.778320,-0.183105,-0.122070,0.000000,21.20,0
942312775,22311.148276,1777901142.746435,603,-1087,-1593,-3,-2,0,0.294434,-0.530762,-0.777832,-0.183105,-0.122070,0.000000,21.24,0
942313789,22311.148282,1777901142.747448,605,-1090,-1593,-4,-1,-1,0.295410,-0.532227,-0.777832,-0.244141,-0.061035,-0.061035,21.17,0
942314800,22311.156387,1777901142.748459,605,-1094,-1595,-3,-1,-2,0.295410,-0.534180,-0.778809,-0.183105,-0.061035,-0.122070,21.41,0
942315814,22311.156407,1777901142.749472,602,-1091,-1596,-3,-2,-1,0.293945,-0.532715,-0.779297,-0.183105,-0.122070,-0.061035,21.41,0
942316823,22311.156417,1777901142.750481,601,-1089,-1594,-4,-1,0,0.293457,-0.531738,-0.778320,-0.244141,-0.061035,0.000000,21.24,1
942317838,22311.156428,1777901142.751495,600,-1091,-1595,-4,-1,0,0.292969,-0.532715,-0.778809,-0.244141,-0.061035,0.000000,21.30,0
942318850,22311.156438,1777901142.752506,600,-1088,-1597,-4,-1,0,0.292969,-0.531250,-0.779785,-0.244141,-0.061035,0.000000,21.39,0
942319863,22311.156448,1777901142.753519,602,-1085,-1600,-3,-1,-1,0.293945,-0.529785,-0.781250,-0.183105,-0.061035,-0.061035,21.35,0
942320874,22311.156458,1777901142.754529,602,-1086,-1599,-3,-1,-1,0.293945,-0.530273,-0.780762,-0.183105,-0.061035,-0.061035,21.26,0
942321885,22311.156473,1777901142.755539,599,-1089,-1596,-3,-1,-2,0.292480,-0.531738,-0.779297,-0.183105,-0.061035,-0.122070,21.20,0
942322899,22311.164442,1777901142.756553,602,-1086,-1596,-3,-1,-1,0.293945,-0.530273,-0.779297,-0.183105,-0.061035,-0.061035,21.27,0
942323909,22311.164459,1777901142.757562,605,-1085,-1598,-3,0,0,0.295410,-0.529785,-0.780273,-0.183105,0.000000,0.000000,21.35,0
942324923,22311.164469,1777901142.758575,604,-1088,-1599,-3,0,0,0.294922,-0.531250,-0.780762,-0.183105,0.000000,0.000000,21.29,0
942325935,22311.164478,1777901142.759587,603,-1090,-1600,-3,0,-1,0.294434,-0.532227,-0.781250,-0.183105,0.000000,-0.061035,21.24,0
942326947,22311.164486,1777901142.760598,605,-1087,-1597,-3,-1,0,0.295410,-0.530762,-0.779785,-0.183105,-0.061035,0.000000,21.27,0
942327961,22311.164492,1777901142.761611,608,-1084,-1592,-3,-2,0,0.296875,-0.529297,-0.777344,-0.183105,-0.122070,0.000000,21.38,1
942328972,22311.164500,1777901142.762622,605,-1085,-1592,-3,-2,-1,0.295410,-0.529785,-0.777344,-0.183105,-0.122070,-0.061035,21.09,0
942329984,22311.164507,1777901142.763633,604,-1086,-1598,-3,-1,-2,0.294922,-0.530273,-0.780273,-0.183105,-0.061035,-0.122070,21.33,0
942330997,22311.172503,1777901142.764647,605,-1088,-1599,-4,0,-1,0.295410,-0.531250,-0.780762,-0.244141,0.000000,-0.061035,21.32,0
942332008,22311.172528,1777901142.765657,603,-1087,-1598,-4,0,0,0.294434,-0.530762,-0.780273,-0.244141,0.000000,0.000000,21.23,0
942333020,22311.172536,1777901142.766668,603,-1088,-1599,-4,0,0,0.294434,-0.531250,-0.780762,-0.244141,0.000000,0.000000,21.26,0
942334034,22311.172542,1777901142.767682,603,-1091,-1597,-3,0,0,0.294434,-0.532715,-0.779785,-0.183105,0.000000,0.000000,21.27,0
942335046,22311.172549,1777901142.768693,600,-1089,-1594,-2,0,0,0.292969,-0.531738,-0.778320,-0.122070,0.000000,0.000000,21.18,0
942336059,22311.172590,1777901142.769705,603,-1089,-1597,-2,0,0,0.294434,-0.531738,-0.779785,-0.122070,0.000000,0.000000,21.17,0
942337070,22311.172597,1777901142.770716,605,-1089,-1599,-3,-1,-1,0.295410,-0.531738,-0.780762,-0.183105,-0.061035,-0.061035,21.47,0
942338083,22311.172604,1777901142.771728,602,-1086,-1594,-4,-1,-1,0.293945,-0.530273,-0.778320,-0.244141,-0.061035,-0.061035,21.45,0
942339101,22311.180579,1777901142.772745,603,-1085,-1593,-3,-1,-1,0.294434,-0.529785,-0.777832,-0.183105,-0.061035,-0.061035,21.36,1
942340107,22311.180598,1777901142.773750,604,-1087,-1597,-2,-1,-1,0.294922,-0.530762,-0.779785,-0.122070,-0.061035,-0.061035,21.39,0
942341119,22311.180609,1777901142.774761,604,-1089,-1598,-3,-1,0,0.294922,-0.531738,-0.780273,-0.183105,-0.061035,0.000000,21.35,0
942342132,22311.180619,1777901142.775774,605,-1090,-1598,-2,0,0,0.295410,-0.532227,-0.780273,-0.122070,0.000000,0.000000,21.15,0
942343143,22311.180629,1777901142.776784,602,-1087,-1599,-1,0,0,0.293945,-0.530762,-0.780762,-0.061035,0.000000,0.000000,21.30,0
942344155,22311.180639,1777901142.777795,601,-1084,-1594,-2,-1,0,0.293457,-0.529297,-0.778320,-0.122070,-0.061035,0.000000,21.27,0
942345169,22311.180649,1777901142.778809,604,-1086,-1593,-4,-2,-1,0.294922,-0.530273,-0.777832,-0.244141,-0.122070,-0.061035,21.32,0
942346180,22311.180659,1777901142.779819,603,-1090,-1597,-3,-1,-2,0.294434,-0.532227,-0.779785,-0.183105,-0.061035,-0.122070,21.21,0
942347192,22311.188698,1777901142.780830,602,-1091,-1597,-2,-1,-1,0.293945,-0.532715,-0.779785,-0.122070,-0.061035,-0.061035,21.35,0
942348204,22311.188715,1777901142.781842,602,-1087,-1596,-3,-1,0,0.293945,-0.530762,-0.779297,-0.183105,-0.061035,0.000000,21.38,0
942349218,22311.188725,1777901142.782855,601,-1085,-1596,-4,-1,-1,0.293457,-0.529785,-0.779297,-0.244141,-0.061035,-0.061035,21.26,0
942350229,22311.188735,1777901142.783865,601,-1088,-1599,-3,-1,-2,0.293457,-0.531250,-0.780762,-0.183105,-0.061035,-0.122070,21.14,1
942351241,22311.188746,1777901142.784876,601,-1090,-1600,-2,-1,-1,0.293457,-0.532227,-0.781250,-0.122070,-0.061035,-0.061035,21.23,0
942352255,22311.188756,1777901142.785890,602,-1089,-1596,-2,0,-1,0.293945,-0.531738,-0.779297,-0.122070,0.000000,-0.061035,21.32,0
942353267,22311.188766,1777901142.786901,603,-1088,-1594,-2,0,-1,0.294434,-0.531250,-0.778320,-0.122070,0.000000,-0.061035,21.33,0
942354279,22311.188776,1777901142.787912,603,-1088,-1596,-2,-1,-1,0.294434,-0.531250,-0.779297,-0.122070,-0.061035,-0.061035,21.44,0
942355292,22311.196800,1777901142.788925,602,-1088,-1597,-2,-2,-1,0.293945,-0.531250,-0.779785,-0.122070,-0.122070,-0.061035,21.29,0
942356304,22311.196818,1777901142.789936,601,-1087,-1597,-3,-3,-1,0.293457,-0.530762,-0.779785,-0.183105,-0.183105,-0.061035,21.35,0
942357316,22311.196826,1777901142.790947,602,-1085,-1597,-3,-2,-2,0.293945,-0.529785,-0.779785,-0.183105,-0.122070,-0.122070,21.26,0
942358328,22311.196832,1777901142.791959,604,-1086,-1596,-3,-1,-1,0.294922,-0.530273,-0.779297,-0.183105,-0.061035,-0.061035,21.07,0
942359338,22311.196839,1777901142.792968,606,-1089,-1597,-3,0,-1,0.295898,-0.531738,-0.779785,-0.183105,0.000000,-0.061035,21.12,0
942360352,22311.196846,1777901142.793981,606,-1088,-1599,-3,1,-1,0.295898,-0.531250,-0.780762,-0.183105,0.061035,-0.061035,21.41,0
942361364,22311.196853,1777901142.794993,601,-1088,-1598,-3,0,-1,0.293457,-0.531250,-0.780273,-0.183105,0.000000,-0.061035,21.29,1
942362375,22311.196861,1777901142.796003,600,-1091,-1594,-3,-1,-2,0.292969,-0.532715,-0.778320,-0.183105,-0.061035,-0.122070,21.26,0
942363390,22311.204873,1777901142.797017,603,-1090,-1594,-3,-2,-1,0.294434,-0.532227,-0.778320,-0.183105,-0.122070,-0.061035,21.33,0
942364401,22311.204886,1777901142.798028,607,-1089,-1597,-3,-2,0,0.296387,-0.531738,-0.779785,-0.183105,-0.122070,0.000000,21.33,0
942365414,22311.204893,1777901142.799040,604,-1089,-1596,-3,-1,0,0.294922,-0.531738,-0.779297,-0.183105,-0.061035,0.000000,21.38,0
942366425,22311.204900,1777901142.800050,602,-1089,-1594,-3,-1,-1,0.293945,-0.531738,-0.778320,-0.183105,-0.061035,-0.061035,21.23,0
942367437,22311.204907,1777901142.801061,605,-1088,-1597,-3,-1,-1,0.295410,-0.531250,-0.779785,-0.183105,-0.061035,-0.061035,21.14,0
942368450,22311.204914,1777901142.802074,607,-1089,-1602,-2,0,-1,0.296387,-0.531738,-0.782227,-0.122070,0.000000,-0.061035,21.26,0
942369463,22311.204920,1777901142.803086,607,-1089,-1597,-2,-1,-1,0.296387,-0.531738,-0.779785,-0.122070,-0.061035,-0.061035,21.35,0
942370473,22311.204927,1777901142.804096,605,-1086,-1592,-3,-1,-1,0.295410,-0.530273,-0.777344,-0.183105,-0.061035,-0.061035,21.20,0
942371486,22311.212978,1777901142.805108,606,-1087,-1596,-3,-1,-1,0.295898,-0.530762,-0.779297,-0.183105,-0.061035,-0.061035,21.29,0
942372499,22311.212992,1777901142.806120,605,-1089,-1598,-2,-1,-1,0.295410,-0.531738,-0.780273,-0.122070,-0.061035,-0.061035,21.27,1
942373512,22311.213005,1777901142.807133,602,-1090,-1597,-3,-1,-1,0.293945,-0.532227,-0.779785,-0.183105,-0.061035,-0.061035,21.26,0
942374523,22311.213013,1777901142.808143,604,-1088,-1597,-3,-1,-2,0.294922,-0.531250,-0.779785,-0.183105,-0.061035,-0.122070,21.18,0
942375536,22311.213019,1777901142.809155,605,-1085,-1597,-3,-1,-2,0.295410,-0.529785,-0.779785,-0.183105,-0.061035,-0.122070,21.35,0
942376550,22311.213026,1777901142.810169,604,-1084,-1597,-3,-2,-1,0.294922,-0.529297,-0.779785,-0.183105,-0.122070,-0.061035,21.24,0
942377559,22311.213033,1777901142.811177,601,-1085,-1599,-3,-2,0,0.293457,-0.529785,-0.780762,-0.183105,-0.122070,0.000000,21.29,0
942378573,22311.213040,1777901142.812190,598,-1085,-1599,-2,-1,0,0.291992,-0.529785,-0.780762,-0.122070,-0.061035,0.000000,21.32,0
942379585,22311.221260,1777901142.813202,602,-1086,-1596,-2,0,-1,0.293945,-0.530273,-0.779297,-0.122070,0.000000,-0.061035,21.20,0
942380597,22311.221279,1777901142.814213,604,-1089,-1596,-3,-1,-1,0.294922,-0.531738,-0.779297,-0.183105,-0.061035,-0.061035,21.30,0
942381610,22311.221289,1777901142.815225,600,-1091,-1597,-2,-2,0,0.292969,-0.532715,-0.779785,-0.122070,-0.122070,0.000000,21.20,0
942382623,22311.221299,1777901142.816238,600,-1089,-1595,-3,-1,-1,0.292969,-0.531738,-0.778809,-0.183105,-0.061035,-0.061035,21.29,0
942383633,22311.221309,1777901142.817247,605,-1084,-1598,-3,0,-1,0.295410,-0.529297,-0.780273,-0.183105,0.000000,-0.061035,21.35,1
942384645,22311.221319,1777901142.818259,606,-1084,-1599,-3,0,-1,0.295898,-0.529297,-0.780762,-0.183105,0.000000,-0.061035,21.29,0
942385659,22311.221328,1777901142.819272,604,-1089,-1594,-3,-1,0,0.294922,-0.531738,-0.778320,-0.183105,-0.061035,0.000000,21.42,0
942386670,22311.221338,1777901142.820282,603,-1091,-1595,-3,-1,0,0.294434,-0.532715,-0.778809,-0.183105,-0.061035,0.000000,21.27,0
942387683,22311.232404,1777901142.821295,602,-1085,-1595,-2,-1,0,0.293945,-0.529785,-0.778809,-0.122070,-0.061035,0.000000,21.15,0
942388696,22311.232427,1777901142.822307,603,-1082,-1596,-2,-2,0,0.294434,-0.528320,-0.779297,-0.122070,-0.122070,0.000000,21.35,0
942389708,22311.232437,1777901142.823318,604,-1085,-1599,-3,-1,0,0.294922,-0.529785,-0.780762,-0.183105,-0.061035,0.000000,21.33,0
942390718,22311.232447,1777901142.824328,603,-1085,-1597,-4,-1,-1,0.294434,-0.529785,-0.779785,-0.244141,-0.061035,-0.061035,21.32,0
942391731,22311.232458,1777901142.825340,604,-1085,-1594,-3,-1,-2,0.294922,-0.529785,-0.778320,-0.183105,-0.061035,-0.122070,21.26,0
942392745,22311.232468,1777901142.826354,602,-1088,-1595,-2,-2,-2,0.293945,-0.531250,-0.778809,-0.122070,-0.122070,-0.122070,21.17,0
942393756,22311.232478,1777901142.827364,603,-1089,-1597,-2,-1,-2,0.294434,-0.531738,-0.779785,-0.122070,-0.061035,-0.122070,21.15,0
942394767,22311.232488,1777901142.828374,608,-1089,-1600,-3,-1,-1,0.296875,-0.531738,-0.781250,-0.183105,-0.061035,-0.061035,21.24,1
942395781,22311.237295,1777901142.829387,607,-1088,-1600,-4,0,0,0.296387,-0.531250,-0.781250,-0.244141,0.000000,0.000000,21.24,0
942396793,22311.237328,1777901142.830399,602,-1089,-1597,-3,-1,0,0.293945,-0.531738,-0.779785,-0.183105,-0.061035,0.000000,21.26,0
942397807,22311.237336,1777901142.831412,601,-1088,-1596,-3,-1,-1,0.293457,-0.531250,-0.779297,-0.183105,-0.061035,-0.061035,21.12,0
942398819,22311.237343,1777901142.832423,603,-1081,-1598,-3,0,0,0.294434,-0.527832,-0.780273,-0.183105,0.000000,0.000000,21.27,0
942399831,22311.237437,1777901142.833435,606,-1084,-1596,-4,-1,1,0.295898,-0.529297,-0.779297,-0.244141,-0.061035,0.061035,21.23,0
942400843,22311.237445,1777901142.834446,607,-1090,-1594,-4,-2,0,0.296387,-0.532227,-0.778320,-0.244141,-0.122070,0.000000,21.39,0
942401855,22311.237452,1777901142.835457,606,-1089,-1594,-3,-1,-1,0.295898,-0.531738,-0.778320,-0.183105,-0.061035,-0.061035,21.14,0
942402867,22311.237458,1777901142.836468,605,-1090,-1594,-2,-1,0,0.295410,-0.532227,-0.778320,-0.122070,-0.061035,0.000000,21.33,0
942403880,22311.245377,1777901142.837481,603,-1091,-1593,-2,-1,0,0.294434,-0.532715,-0.777832,-0.122070,-0.061035,0.000000,21.27,0
942404890,22311.245397,1777901142.838490,603,-1088,-1594,-2,-1,-1,0.294434,-0.531250,-0.778320,-0.122070,-0.061035,-0.061035,21.18,0
942405904,22311.245408,1777901142.839504,606,-1085,-1598,-3,-1,-1,0.295898,-0.529785,-0.780273,-0.183105,-0.061035,-0.061035,21.26,1
942406916,22311.245420,1777901142.840515,605,-1085,-1599,-3,-1,0,0.295410,-0.529785,-0.780762,-0.183105,-0.061035,0.000000,21.30,0
942407928,22311.245430,1777901142.841527,601,-1088,-1594,-3,-1,-1,0.293457,-0.531250,-0.778320,-0.183105,-0.061035,-0.061035,21.38,0
942408941,22311.245441,1777901142.842539,601,-1088,-1591,-3,-1,-1,0.293457,-0.531250,-0.776855,-0.183105,-0.061035,-0.061035,21.21,0
942409951,22311.245451,1777901142.843548,601,-1088,-1594,-2,-3,-2,0.293457,-0.531250,-0.778320,-0.122070,-0.183105,-0.122070,21.29,0
942410964,22311.245461,1777901142.844561,604,-1091,-1596,-2,-3,-1,0.294922,-0.532715,-0.779297,-0.122070,-0.183105,-0.061035,21.20,0
942411977,22311.253503,1777901142.845573,605,-1091,-1598,-3,-1,0,0.295410,-0.532715,-0.780273,-0.183105,-0.061035,0.000000,21.32,0
942412988,22311.253513,1777901142.846583,606,-1088,-1599,-3,0,0,0.295898,-0.531250,-0.780762,-0.183105,0.000000,0.000000,21.23,0
942414001,22311.253520,1777901142.847596,604,-1088,-1596,-2,0,-1,0.294922,-0.531250,-0.779297,-0.122070,0.000000,-0.061035,21.32,0
942415013,22311.253527,1777901142.848607,602,-1087,-1595,-2,-2,-1,0.293945,-0.530762,-0.778809,-0.122070,-0.122070,-0.061035,21.32,0
942416025,22311.253534,1777901142.849618,602,-1084,-1596,-3,-2,-1,0.293945,-0.529297,-0.779297,-0.183105,-0.122070,-0.061035,21.26,0
942417040,22311.253540,1777901142.850633,602,-1085,-1595,-2,-2,0,0.293945,-0.529785,-0.778809,-0.122070,-0.122070,0.000000,21.33,1
942418051,22311.253549,1777901142.851643,601,-1089,-1592,-1,-2,0,0.293457,-0.531738,-0.777344,-0.061035,-0.122070,0.000000,21.23,0
942419063,22311.253556,1777901142.852654,604,-1088,-1592,-2,-1,1,0.294922,-0.531250,-0.777344,-0.122070,-0.061035,0.061035,21.29,0
942420076,22311.261564,1777901142.853666,605,-1089,-1596,-3,-1,1,0.295410,-0.531738,-0.779297,-0.183105,-0.061035,0.061035,21.32,0
942421096,22311.261579,1777901142.854686,603,-1093,-1595,-2,-1,0,0.294434,-0.533691,-0.778809,-0.122070,-0.061035,0.000000,21.29,0
942422104,22311.261587,1777901142.855693,603,-1090,-1592,-2,-2,-1,0.294434,-0.532227,-0.777344,-0.122070,-0.122070,-0.061035,21.56,0
942423113,22311.261594,1777901142.856701,602,-1084,-1596,-3,-2,0,0.293945,-0.529297,-0.779297,-0.183105,-0.122070,0.000000,21.17,0
942424125,22311.261601,1777901142.857713,602,-1086,-1600,-3,-1,1,0.293945,-0.530273,-0.781250,-0.183105,-0.061035,0.061035,21.26,0
942425135,22311.261608,1777901142.858722,605,-1088,-1599,-3,0,1,0.295410,-0.531250,-0.780762,-0.183105,0.000000,0.061035,21.32,0
942426149,22311.261615,1777901142.859735,604,-1086,-1599,-4,-1,1,0.294922,-0.530273,-0.780762,-0.244141,-0.061035,0.061035,21.26,0
942427162,22311.261622,1777901142.860748,603,-1085,-1598,-4,-1,1,0.294434,-0.529785,-0.780273,-0.244141,-0.061035,0.061035,21.41,0
942428174,22311.269653,1777901142.861759,605,-1087,-1596,-3,-1,-1,0.295410,-0.530762,-0.779297,-0.183105,-0.061035,-0.061035,21.24,1
942429184,22311.269672,1777901142.862769,605,-1086,-1597,-2,-1,-1,0.295410,-0.530273,-0.779785,-0.122070,-0.061035,-0.061035,21.32,0
942430198,22311.269683,1777901142.863782,604,-1084,-1595,-2,-1,0,0.294922,-0.529297,-0.778809,-0.122070,-0.061035,0.000000,21.15,0
942431209,22311.269694,1777901142.864793,606,-1086,-1594,-3,0,1,0.295898,-0.530273,-0.778320,-0.183105,0.000000,0.061035,21.41,0
942432223,22311.269704,1777901142.865806,607,-1088,-1596,-3,0,0,0.296387,-0.531250,-0.779297,-0.183105,0.000000,0.000000,21.29,0
942433233,22311.269714,1777901142.866815,606,-1089,-1595,-3,-1,-1,0.295898,-0.531738,-0.778809,-0.183105,-0.061035,-0.061035,21.41,0
942434247,22311.269724,1777901142.867829,606,-1088,-1595,-3,-2,0,0.295898,-0.531250,-0.778809,-0.183105,-0.122070,0.000000,21.38,0
942435259,22311.269734,1777901142.868840,608,-1086,-1595,-2,-2,-1,0.296875,-0.530273,-0.778809,-0.122070,-0.122070,-0.061035,21.15,0
942436272,22311.277798,1777901142.869852,607,-1087,-1594,-2,0,-1,0.296387,-0.530762,-0.778320,-0.122070,0.000000,-0.061035,21.29,0
942437285,22311.277830,1777901142.870865,605,-1088,-1594,-3,0,0,0.295410,-0.531250,-0.778320,-0.183105,0.000000,0.000000,21.32,0
942438297,22311.277838,1777901142.871876,603,-1087,-1595,-3,0,-1,0.294434,-0.530762,-0.778809,-0.183105,0.000000,-0.061035,21.35,0
942439308,22311.277845,1777901142.872886,602,-1085,-1596,-2,-1,-1,0.293945,-0.529785,-0.779297,-0.122070,-0.061035,-0.061035,21.15,1
942440322,22311.277854,1777901142.873900,605,-1085,-1598,-2,-1,-1,0.295410,-0.529785,-0.780273,-0.122070,-0.061035,-0.061035,21.29,0
942441333,22311.277861,1777901142.874910,606,-1089,-1597,-2,-1,-1,0.295898,-0.531738,-0.779785,-0.122070,-0.061035,-0.061035,21.41,0
942442345,22311.277868,1777901142.875921,602,-1090,-1597,-3,-1,0,0.293945,-0.532227,-0.779785,-0.183105,-0.061035,0.000000,21.38,0
942443358,22311.277875,1777901142.876934,601,-1087,-1595,-3,-1,0,0.293457,-0.530762,-0.778809,-0.183105,-0.061035,0.000000,21.33,0
942444368,22311.285858,1777901142.877943,601,-1086,-1595,-3,-1,-1,0.293457,-0.530273,-0.778809,-0.183105,-0.061035,-0.061035,21.35,0
942445382,22311.285876,1777901142.878957,605,-1089,-1597,-2,-1,-1,0.295410,-0.531738,-0.779785,-0.122070,-0.061035,-0.061035,21.20,0
942446393,22311.285884,1777901142.879967,608,-1091,-1597,-2,-1,0,0.296875,-0.532715,-0.779785,-0.122070,-0.061035,0.000000,21.32,0
942447407,22311.285891,1777901142.880980,605,-1089,-1597,-3,-1,0,0.295410,-0.531738,-0.779785,-0.183105,-0.061035,0.000000,21.23,0
942448419,22311.285898,1777901142.881991,606,-1086,-1596,-3,-1,0,0.295898,-0.530273,-0.779297,-0.183105,-0.061035,0.000000,21.29,0
942449431,22311.285904,1777901142.883003,606,-1090,-1596,-3,-1,0,0.295898,-0.532227,-0.779297,-0.183105,-0.061035,0.000000,21.29,0
942450444,22311.285911,1777901142.884015,603,-1090,-1600,-3,-2,0,0.294434,-0.532227,-0.781250,-0.183105,-0.122070,0.000000,21.18,1
942451454,22311.285919,1777901142.885025,602,-1088,-1598,-3,-2,0,0.293945,-0.531250,-0.780273,-0.183105,-0.122070,0.000000,21.30,0
942452468,22311.293978,1777901142.886038,604,-1087,-1593,-3,-1,0,0.294922,-0.530762,-0.777832,-0.183105,-0.061035,0.000000,21.32,0
942453479,22311.294031,1777901142.887048,604,-1084,-1594,-2,-1,0,0.294922,-0.529297,-0.778320,-0.122070,-0.061035,0.000000,21.29,0
942454492,22311.294040,1777901142.888061,601,-1086,-1597,-1,-2,0,0.293457,-0.530273,-0.779785,-0.061035,-0.122070,0.000000,21.29,0
942455503,22311.294048,1777901142.889071,600,-1089,-1597,-2,-2,-1,0.292969,-0.531738,-0.779785,-0.122070,-0.122070,-0.061035,21.26,0
942456517,22311.294055,1777901142.890084,601,-1087,-1596,-4,-2,0,0.293457,-0.530762,-0.779297,-0.244141,-0.122070,0.000000,21.30,0
942457527,22311.294063,1777901142.891093,602,-1087,-1593,-4,-2,0,0.293945,-0.530762,-0.777832,-0.244141,-0.122070,0.000000,21.41,0
942458542,22311.294070,1777901142.892108,605,-1087,-1592,-2,-1,0,0.295410,-0.530762,-0.777344,-0.122070,-0.061035,0.000000,21.33,0
942459554,22311.294078,1777901142.893119,607,-1088,-1596,-2,-1,-1,0.296387,-0.531250,-0.779297,-0.122070,-0.061035,-0.061035,21.36,0
942460566,22311.302046,1777901142.894131,606,-1087,-1596,-3,-2,-1,0.295898,-0.530762,-0.779297,-0.183105,-0.122070,-0.061035,21.27,0
942461577,22311.302085,1777901142.895141,604,-1089,-1595,-2,-1,-1,0.294922,-0.531738,-0.778809,-0.122070,-0.061035,-0.061035,21.35,1
942462592,22311.302122,1777901142.896155,603,-1090,-1599,-2,-1,0,0.294434,-0.532227,-0.780762,-0.122070,-0.061035,0.000000,21.29,0
942463601,22311.302129,1777901142.897163,603,-1089,-1600,-2,-1,0,0.294434,-0.531738,-0.781250,-0.122070,-0.061035,0.000000,21.35,0
942464616,22311.302136,1777901142.898178,604,-1089,-1600,-2,-2,0,0.294922,-0.531738,-0.781250,-0.122070,-0.122070,0.000000,21.39,0
942465628,22311.302143,1777901142.899189,605,-1091,-1601,-3,-2,0,0.295410,-0.532715,-0.781738,-0.183105,-0.122070,0.000000,21.38,0
942466640,22311.302150,1777901142.900200,604,-1090,-1598,-3,-2,0,0.294922,-0.532227,-0.780273,-0.183105,-0.122070,0.000000,21.23,0
942467650,22311.302157,1777901142.901210,603,-1088,-1596,-3,-3,1,0.294434,-0.531250,-0.779297,-0.183105,-0.183105,0.061035,21.18,0
942468664,22311.310172,1777901142.902223,602,-1089,-1598,-2,-2,0,0.293945,-0.531738,-0.780273,-0.122070,-0.122070,0.000000,21.14,0
942469676,22311.310206,1777901142.903234,600,-1087,-1594,-2,-1,-1,0.292969,-0.530762,-0.778320,-0.122070,-0.061035,-0.061035,21.38,0
942470689,22311.310217,1777901142.904247,600,-1085,-1591,-2,-1,-1,0.292969,-0.529785,-0.776855,-0.122070,-0.061035,-0.061035,21.26,0
942471700,22311.310228,1777901142.905257,603,-1088,-1593,-1,-1,-1,0.294434,-0.531250,-0.777832,-0.061035,-0.061035,-0.061035,21.23,0
942472713,22311.310237,1777901142.906269,603,-1090,-1596,-2,-1,-1,0.294434,-0.532227,-0.779297,-0.122070,-0.061035,-0.061035,21.45,1
942473725,22311.310248,1777901142.907280,599,-1087,-1599,-3,-2,0,0.292480,-0.530762,-0.780762,-0.183105,-0.122070,0.000000,21.20,0
942474736,22311.310258,1777901142.908291,600,-1087,-1598,-3,-2,0,0.292969,-0.530762,-0.780273,-0.183105,-0.122070,0.000000,21.35,0
942475748,22311.310268,1777901142.909302,604,-1093,-1596,-2,-2,-1,0.294922,-0.533691,-0.779297,-0.122070,-0.122070,-0.061035,21.23,0
942476763,22311.318262,1777901142.910316,602,-1093,-1596,-1,-2,0,0.293945,-0.533691,-0.779297,-0.061035,-0.122070,0.000000,21.20,0
942477774,22311.318284,1777901142.911327,603,-1089,-1596,-1,-1,-1,0.294434,-0.531738,-0.779297,-0.061035,-0.061035,-0.061035,21.26,0
942478787,22311.318291,1777901142.912339,606,-1090,-1594,-2,0,-2,0.295898,-0.532227,-0.778320,-0.122070,0.000000,-0.122070,21.35,0
942479797,22311.318299,1777901142.913348,604,-1092,-1593,-3,0,-1,0.294922,-0.533203,-0.777832,-0.183105,0.000000,-0.061035,21.44,0
942480811,22311.318306,1777901142.914362,602,-1089,-1596,-3,-2,0,0.293945,-0.531738,-0.779297,-0.183105,-0.122070,0.000000,21.23,0
942481822,22311.318312,1777901142.915372,603,-1086,-1597,-3,-2,0,0.294434,-0.530273,-0.779785,-0.183105,-0.122070,0.000000,21.35,0
942482834,22311.318319,1777901142.916384,605,-1087,-1593,-3,-1,0,0.295410,-0.530762,-0.777832,-0.183105,-0.061035,0.000000,21.32,0
942483846,22311.318326,1777901142.917395,603,-1087,-1592,-3,-1,0,0.294434,-0.530762,-0.777344,-0.183105,-0.061035,0.000000,21.41,1
942484859,22311.326372,1777901142.918408,602,-1088,-1595,-3,-2,-1,0.293945,-0.531250,-0.778809,-0.183105,-0.122070,-0.061035,21.32,0
942485873,22311.326389,1777901142.919421,605,-1090,-1597,-3,-2,-1,0.295410,-0.532227,-0.779785,-0.183105,-0.122070,-0.061035,21.30,0
942486884,22311.326397,1777901142.920431,605,-1087,-1596,-4,-2,-1,0.295410,-0.530762,-0.779297,-0.244141,-0.122070,-0.061035,21.30,0
942487897,22311.326404,1777901142.921444,602,-1086,-1597,-4,-1,-1,0.293945,-0.530273,-0.779785,-0.244141,-0.061035,-0.061035,21.07,0
942488909,22311.326410,1777901142.922455,603,-1091,-1598,-2,-2,0,0.294434,-0.532715,-0.780273,-0.122070,-0.122070,0.000000,21.36,0
942489922,22311.326417,1777901142.923467,603,-1090,-1596,-2,-1,0,0.294434,-0.532227,-0.779297,-0.122070,-0.061035,0.000000,21.26,0
942490934,22311.326424,1777901142.924479,604,-1088,-1596,-3,-1,-1,0.294922,-0.531250,-0.779297,-0.183105,-0.061035,-0.061035,21.24,0
942491944,22311.326431,1777901142.925488,604,-1087,-1595,-3,-1,0,0.294922,-0.530762,-0.778809,-0.183105,-0.061035,0.000000,21.38,0
942492958,22311.334477,1777901142.926501,604,-1085,-1591,-3,-2,0,0.294922,-0.529785,-0.776855,-0.183105,-0.122070,0.000000,21.24,0
942493969,22311.334500,1777901142.927512,605,-1086,-1590,-3,-2,0,0.295410,-0.530273,-0.776367,-0.183105,-0.122070,0.000000,21.39,0
942494983,22311.334510,1777901142.928525,600,-1090,-1592,-3,-1,0,0.292969,-0.532227,-0.777344,-0.183105,-0.061035,0.000000,21.23,1
942495996,22311.334522,1777901142.929537,599,-1089,-1594,-3,-1,-1,0.292480,-0.531738,-0.778320,-0.183105,-0.061035,-0.061035,21.32,0
942497008,22311.334532,1777901142.930548,606,-1088,-1597,-3,-2,-1,0.295898,-0.531250,-0.779785,-0.183105,-0.122070,-0.061035,21.27,0
942498019,22311.334543,1777901142.931559,604,-1090,-1598,-4,-2,-1,0.294922,-0.532227,-0.780273,-0.244141,-0.122070,-0.061035,21.20,0
942499032,22311.334553,1777901142.932571,600,-1089,-1594,-3,-2,0,0.292969,-0.531738,-0.778320,-0.183105,-0.122070,0.000000,21.29,0
942500045,22311.334563,1777901142.933583,604,-1088,-1594,-3,0,0,0.294922,-0.531250,-0.778320,-0.183105,0.000000,0.000000,21.32,0
942501054,22311.342579,1777901142.934592,606,-1091,-1596,-3,0,0,0.295898,-0.532715,-0.779297,-0.183105,0.000000,0.000000,21.24,0
942502069,22311.342596,1777901142.935606,605,-1092,-1598,-3,-1,-1,0.295410,-0.533203,-0.780273,-0.183105,-0.061035,-0.061035,21.33,0
942503081,22311.342604,1777901142.936618,604,-1091,-1600,-2,-1,-1,0.294922,-0.532715,-0.781250,-0.122070,-0.061035,-0.061035,21.29,0
942504098,22311.342611,1777901142.937634,606,-1086,-1597,-2,-1,0,0.295898,-0.530273,-0.779785,-0.122070,-0.061035,0.000000,21.39,0
942505104,22311.342618,1777901142.938639,606,-1084,-1594,-3,-2,0,0.295898,-0.529297,-0.778320,-0.183105,-0.122070,0.000000,21.29,0
942506118,22311.342625,1777901142.939653,604,-1087,-1595,-3,-2,0,0.294922,-0.530762,-0.778809,-0.183105,-0.122070,0.000000,21.33,1
942507130,22311.342632,1777901142.940664,604,-1089,-1594,-3,-1,-1,0.294922,-0.531738,-0.778320,-0.183105,-0.061035,-0.061035,21.36,0
942508141,22311.342639,1777901142.941674,606,-1086,-1596,-2,-1,-1,0.295898,-0.530273,-0.779297,-0.122070,-0.061035,-0.061035,21.24,0
942509153,22311.350657,1777901142.942685,602,-1086,-1600,-3,-1,0,0.293945,-0.530273,-0.781250,-0.183105,-0.061035,0.000000,21.26,0
942510165,22311.350683,1777901142.943696,599,-1087,-1595,-3,-1,0,0.292480,-0.530762,-0.778809,-0.183105,-0.061035,0.000000,21.15,0
942511180,22311.350696,1777901142.944710,604,-1087,-1595,-3,-1,-1,0.294922,-0.530762,-0.778809,-0.183105,-0.061035,-0.061035,21.32,0
942512191,22311.350708,1777901142.945721,608,-1088,-1599,-2,-1,-1,0.296875,-0.531250,-0.780762,-0.122070,-0.061035,-0.061035,21.41,0
942513204,22311.350719,1777901142.946733,606,-1090,-1600,-3,-1,0,0.295898,-0.532227,-0.781250,-0.183105,-0.061035,0.000000,21.44,0
942514216,22311.350730,1777901142.947744,605,-1089,-1600,-3,-1,0,0.295410,-0.531738,-0.781250,-0.183105,-0.061035,0.000000,21.20,0
942515228,22311.350741,1777901142.948756,604,-1089,-1598,-2,-1,-1,0.294922,-0.531738,-0.780273,-0.122070,-0.061035,-0.061035,21.15,0
942516240,22311.350751,1777901142.949767,602,-1089,-1595,-2,-1,-1,0.293945,-0.531738,-0.778809,-0.122070,-0.061035,-0.061035,21.33,0
942517252,22311.358767,1777901142.950778,600,-1086,-1595,-2,-1,-1,0.292969,-0.530273,-0.778809,-0.122070,-0.061035,-0.061035,21.38,1
942518265,22311.358784,1777901142.951791,601,-1086,-1599,-2,-2,-1,0.293457,-0.530273,-0.780762,-0.122070,-0.122070,-0.061035,21.32,0
942519277,22311.358792,1777901142.952802,602,-1088,-1597,-2,-2,0,0.293945,-0.531250,-0.779785,-0.122070,-0.122070,0.000000,21.39,0
942520290,22311.358799,1777901142.953815,602,-1087,-1593,-3,-2,0,0.293945,-0.530762,-0.777832,-0.183105,-0.122070,0.000000,21.41,0
942521302,22311.358806,1777901142.954826,604,-1084,-1596,-3,-3,0,0.294922,-0.529297,-0.779297,-0.183105,-0.183105,0.000000,21.27,0
942522313,22311.358813,1777901142.955836,605,-1088,-1599,-2,-2,0,0.295410,-0.531250,-0.780762,-0.122070,-0.122070,0.000000,21.29,0
942523326,22311.358820,1777901142.956849,604,-1093,-1600,-2,-1,0,0.294922,-0.533691,-0.781250,-0.122070,-0.061035,0.000000,21.33,0
942524338,22311.358827,1777901142.957860,603,-1091,-1600,-2,-1,0,0.294434,-0.532715,-0.781250,-0.122070,-0.061035,0.000000,21.21,0
942525351,22311.366853,1777901142.958872,602,-1089,-1596,-2,-1,-1,0.293945,-0.531738,-0.779297,-0.122070,-0.061035,-0.061035,21.26,0
942526361,22311.366880,1777901142.959882,606,-1089,-1592,-3,-1,0,0.295898,-0.531738,-0.777344,-0.183105,-0.061035,0.000000,21.23,0
942527376,22311.366891,1777901142.960896,607,-1088,-1595,-3,0,0,0.296387,-0.531250,-0.778809,-0.183105,0.000000,0.000000,21.24,0
942528388,22311.366902,1777901142.961907,603,-1088,-1597,-4,0,0,0.294434,-0.531250,-0.779785,-0.244141,0.000000,0.000000,21.35,1
942529400,22311.366913,1777901142.962919,602,-1087,-1596,-3,-1,0,0.293945,-0.530762,-0.779297,-0.183105,-0.061035,0.000000,21.54,0
942530411,22311.366924,1777901142.963929,603,-1086,-1594,-2,-1,0,0.294434,-0.530273,-0.778320,-0.122070,-0.061035,0.000000,21.17,0
942531423,22311.366934,1777901142.964941,600,-1084,-1594,-2,-1,-1,0.292969,-0.529297,-0.778320,-0.122070,-0.061035,-0.061035,21.27,0
942532437,22311.366944,1777901142.965954,599,-1085,-1596,-3,-1,0,0.292480,-0.529785,-0.779297,-0.183105,-0.061035,0.000000,21.18,0
942533447,22311.375130,1777901142.966963,601,-1087,-1595,-3,-1,0,0.293457,-0.530762,-0.778809,-0.183105,-0.061035,0.000000,21.32,0
942534461,22311.375148,1777901142.967977,604,-1087,-1592,-1,-1,-1,0.294922,-0.530762,-0.777344,-0.061035,-0.061035,-0.061035,21.11,0
942535472,22311.375156,1777901142.968987,605,-1086,-1596,-1,-2,0,0.295410,-0.530273,-0.779297,-0.061035,-0.122070,0.000000,21.15,0
942536484,22311.375163,1777901142.969998,600,-1088,-1602,-2,-1,0,0.292969,-0.531250,-0.782227,-0.122070,-0.061035,0.000000,21.17,0
942537496,22311.375170,1777901142.971009,600,-1090,-1603,-3,0,0,0.292969,-0.532227,-0.782715,-0.183105,0.000000,0.000000,21.32,0
942538510,22311.375177,1777901142.972023,604,-1086,-1598,-3,-1,1,0.294922,-0.530273,-0.780273,-0.183105,-0.061035,0.061035,21.38,0
942539523,22311.375184,1777901142.973035,604,-1084,-1594,-3,-1,1,0.294922,-0.529297,-0.778320,-0.183105,-0.061035,0.061035,21.47,1
942540534,22311.375192,1777901142.974046,602,-1088,-1594,-2,-1,0,0.293945,-0.531250,-0.778320,-0.122070,-0.061035,0.000000,21.32,0
942541548,22311.383038,1777901142.975059,602,-1089,-1593,-2,-1,-1,0.293945,-0.531738,-0.777832,-0.122070,-0.061035,-0.061035,21.24,0
942542559,22311.383064,1777901142.976069,604,-1087,-1592,-2,-2,-2,0.294922,-0.530762,-0.777344,-0.122070,-0.122070,-0.122070,21.24,0
942543571,22311.383072,1777901142.977080,603,-1086,-1593,-3,-1,0,0.294434,-0.530273,-0.777832,-0.183105,-0.061035,0.000000,21.38,0
942544583,22311.383079,1777901142.978091,601,-1085,-1593,-3,-1,1,0.293457,-0.529785,-0.777832,-0.183105,-0.061035,0.061035,21.27,0
942545595,22311.383086,1777901142.979103,603,-1087,-1595,-2,-2,1,0.294434,-0.530762,-0.778809,-0.122070,-0.122070,0.061035,21.20,0
942546608,22311.383093,1777901142.980115,604,-1089,-1596,-2,-2,0,0.294922,-0.531738,-0.779297,-0.122070,-0.122070,0.000000,21.35,0
942547621,22311.383100,1777901142.981128,603,-1088,-1596,-2,-1,0,0.294434,-0.531250,-0.779297,-0.122070,-0.061035,0.000000,21.35,0
942548631,22311.383107,1777901142.982137,603,-1091,-1598,-2,-1,0,0.294434,-0.532715,-0.780273,-0.122070,-0.061035,0.000000,21.39,0
942549646,22311.391958,1777901142.983151,606,-1091,-1601,-2,-1,0,0.295898,-0.532715,-0.781738,-0.122070,-0.061035,0.000000,21.35,0
942550658,22311.391977,1777901142.984163,606,-1086,-1602,-2,-1,-1,0.295898,-0.530273,-0.782227,-0.122070,-0.061035,-0.061035,21.38,1
942551670,22311.391985,1777901142.985174,603,-1085,-1600,-3,-1,-1,0.294434,-0.529785,-0.781250,-0.183105,-0.061035,-0.061035,21.38,0
942552680,22311.391993,1777901142.986183,602,-1087,-1596,-2,-1,0,0.293945,-0.530762,-0.779297,-0.122070,-0.061035,0.000000,21.33,0
942553693,22311.392000,1777901142.987196,602,-1089,-1592,-2,-2,-1,0.293945,-0.531738,-0.777344,-0.122070,-0.122070,-0.061035,21.18,0
942554705,22311.392014,1777901142.988207,600,-1088,-1592,-1,-2,-1,0.292969,-0.531250,-0.777344,-0.061035,-0.122070,-0.061035,21.23,0
942555718,22311.392021,1777901142.989219,602,-1086,-1593,-2,-2,0,0.293945,-0.530273,-0.777832,-0.122070,-0.122070,0.000000,21.15,0
942556729,22311.392028,1777901142.990230,603,-1086,-1594,-2,-1,1,0.294434,-0.530273,-0.778320,-0.122070,-0.061035,0.061035,21.17,0
942557742,22311.399239,1777901142.991242,601,-1088,-1595,-3,-1,0,0.293457,-0.531250,-0.778809,-0.183105,-0.061035,0.000000,21.38,0
942558754,22311.399265,1777901142.992253,602,-1089,-1598,-3,-1,-1,0.293945,-0.531738,-0.780273,-0.183105,-0.061035,-0.061035,21.30,0
942559767,22311.399277,1777901142.993266,602,-1087,-1601,-3,-2,-1,0.293945,-0.530762,-0.781738,-0.183105,-0.122070,-0.061035,21.33,0
942560779,22311.399288,1777901142.994277,600,-1085,-1602,-3,-1,-1,0.292969,-0.529785,-0.782227,-0.183105,-0.061035,-0.061035,21.29,0
942561792,22311.399298,1777901142.995289,601,-1087,-1601,-3,-1,0,0.293457,-0.530762,-0.781738,-0.183105,-0.061035,0.000000,21.32,1
942562804,22311.399310,1777901142.996300,605,-1088,-1597,-3,-2,0,0.295410,-0.531250,-0.779785,-0.183105,-0.122070,0.000000,21.20,0
942563816,22311.399322,1777901142.997312,606,-1088,-1593,-2,-2,0,0.295898,-0.531250,-0.777832,-0.122070,-0.122070,0.000000,21.12,0
942564828,22311.399333,1777901142.998323,605,-1088,-1593,-2,-1,-1,0.295410,-0.531250,-0.777832,-0.122070,-0.061035,-0.061035,21.29,0
942565841,22311.407367,1777901142.999335,603,-1087,-1596,-3,-1,-1,0.294434,-0.530762,-0.779297,-0.183105,-0.061035,-0.061035,21.20,0
942566853,22311.407389,1777901143.000347,606,-1088,-1596,-3,-2,0,0.295898,-0.531250,-0.779297,-0.183105,-0.122070,0.000000,21.30,0
942567864,22311.407397,1777901143.001357,609,-1089,-1593,-3,-2,-1,0.297363,-0.531738,-0.777832,-0.183105,-0.122070,-0.061035,21.30,0
942568878,22311.407405,1777901143.002370,606,-1088,-1594,-2,-2,-1,0.295898,-0.531250,-0.778320,-0.122070,-0.122070,-0.061035,21.20,0
942569888,22311.407412,1777901143.003380,604,-1091,-1595,-3,-2,0,0.294922,-0.532715,-0.778809,-0.183105,-0.122070,0.000000,21.30,0
942570903,22311.407419,1777901143.004394,605,-1092,-1594,-3,-1,1,0.295410,-0.533203,-0.778320,-0.183105,-0.061035,0.061035,21.26,0
942571915,22311.407426,1777901143.005405,606,-1091,-1595,-2,-1,0,0.295898,-0.532715,-0.778809,-0.122070,-0.061035,0.000000,21.32,0
942572925,22311.407433,1777901143.006415,603,-1089,-1595,-2,-2,0,0.294434,-0.531738,-0.778809,-0.122070,-0.122070,0.000000,21.26,1
942573937,22311.415440,1777901143.007427,601,-1087,-1596,-3,-2,0,0.293457,-0.530762,-0.779297,-0.183105,-0.122070,0.000000,21.26,0
942574951,22311.415458,1777901143.008440,603,-1087,-1595,-3,-2,0,0.294434,-0.530762,-0.778809,-0.183105,-0.122070,0.000000,21.23,0
942575964,22311.415466,1777901143.009452,604,-1090,-1592,-3,-1,0,0.294922,-0.532227,-0.777344,-0.183105,-0.061035,0.000000,21.15,0
942576974,22311.415473,1777901143.010462,602,-1089,-1591,-3,-1,0,0.293945,-0.531738,-0.776855,-0.183105,-0.061035,0.000000,21.29,0
942577986,22311.415480,1777901143.011473,602,-1086,-1594,-4,-2,1,0.293945,-0.530273,-0.778320,-0.244141,-0.122070,0.061035,21.23,0
942579000,22311.415487,1777901143.012486,605,-1089,-1597,-4,-1,1,0.295410,-0.531738,-0.779785,-0.244141,-0.061035,0.061035,21.32,0
942580011,22311.415494,1777901143.013497,605,-1091,-1594,-3,-1,0,0.295410,-0.532715,-0.778320,-0.183105,-0.061035,0.000000,21.33,0
942581025,22311.415501,1777901143.014510,599,-1087,-1592,-3,-1,-1,0.292480,-0.530762,-0.777344,-0.183105,-0.061035,-0.061035,21.20,0
942582037,22311.423563,1777901143.015521,598,-1084,-1594,-3,-2,0,0.291992,-0.529297,-0.778320,-0.183105,-0.122070,0.000000,21.38,0
942583050,22311.423600,1777901143.016534,604,-1084,-1595,-3,-1,0,0.294922,-0.529297,-0.778809,-0.183105,-0.061035,0.000000,21.14,0
942584060,22311.423611,1777901143.017542,607,-1087,-1595,-2,-1,0,0.296387,-0.530762,-0.778809,-0.122070,-0.061035,0.000000,21.30,1
942585074,22311.423623,1777901143.018555,604,-1090,-1593,-2,-1,0,0.294922,-0.532227,-0.777832,-0.122070,-0.061035,0.000000,21.38,0
942586095,22311.423633,1777901143.019576,600,-1090,-1589,-3,-1,0,0.292969,-0.532227,-0.775879,-0.183105,-0.061035,0.000000,21.38,0
942587100,22311.423644,1777901143.020580,602,-1087,-1589,-4,-2,0,0.293945,-0.530762,-0.775879,-0.244141,-0.122070,0.000000,21.38,0
942588111,22311.423706,1777901143.021590,604,-1087,-1592,-4,-2,-1,0.294922,-0.530762,-0.777344,-0.244141,-0.122070,-0.061035,21.35,0
942589123,22311.423716,1777901143.022602,604,-1091,-1596,-3,-1,-1,0.294922,-0.532715,-0.779297,-0.183105,-0.061035,-0.061035,21.35,0
942590136,22311.431620,1777901143.023614,605,-1091,-1595,-3,-1,0,0.295410,-0.532715,-0.778809,-0.183105,-0.061035,0.000000,21.23,0
942591147,22311.431642,1777901143.024624,604,-1089,-1594,-2,-2,0,0.294922,-0.531738,-0.778320,-0.122070,-0.122070,0.000000,21.35,0
942592159,22311.431654,1777901143.025636,601,-1088,-1596,-2,-1,0,0.293457,-0.531250,-0.779297,-0.122070,-0.061035,0.000000,21.35,0
942593171,22311.431664,1777901143.026647,605,-1089,-1594,-2,-1,-1,0.295410,-0.531738,-0.778320,-0.122070,-0.061035,-0.061035,21.38,0
942594185,22311.431675,1777901143.027660,606,-1086,-1591,-3,-2,0,0.295898,-0.530273,-0.776855,-0.183105,-0.122070,0.000000,21.30,0
942595197,22311.431687,1777901143.028672,600,-1083,-1593,-3,-2,-1,0.292969,-0.528809,-0.777832,-0.183105,-0.122070,-0.061035,21.32,1
942596209,22311.431700,1777901143.029683,601,-1086,-1596,-3,-1,0,0.293457,-0.530273,-0.779297,-0.183105,-0.061035,0.000000,21.33,0
942597219,22311.431711,1777901143.030692,604,-1088,-1596,-2,-1,0,0.294922,-0.531250,-0.779297,-0.122070,-0.061035,0.000000,21.32,0
942598234,22311.439864,1777901143.031708,603,-1087,-1596,-2,-2,1,0.294434,-0.530762,-0.779297,-0.122070,-0.122070,0.061035,21.14,0
942599246,22311.439880,1777901143.032719,603,-1088,-1597,-2,-2,0,0.294434,-0.531250,-0.779785,-0.122070,-0.122070,0.000000,21.14,0
942600258,22311.439888,1777901143.033731,604,-1090,-1596,-2,0,0,0.294922,-0.532227,-0.779297,-0.122070,0.000000,0.000000,21.47,0
942601268,22311.439895,1777901143.034740,604,-1087,-1593,-2,-1,0,0.294922,-0.530762,-0.777832,-0.122070,-0.061035,0.000000,21.20,0
942602281,22311.439902,1777901143.035752,602,-1085,-1594,-3,-2,1,0.293945,-0.529785,-0.778320,-0.183105,-0.122070,0.061035,21.23,0
942603294,22311.439909,1777901143.036764,602,-1089,-1597,-3,-1,0,0.293945,-0.531738,-0.779785,-0.183105,-0.061035,0.000000,21.38,0
942604305,22311.439916,1777901143.037775,604,-1091,-1598,-3,-1,0,0.294922,-0.532715,-0.780273,-0.183105,-0.061035,0.000000,21.23,0
942605317,22311.439923,1777901143.038786,605,-1091,-1598,-3,-1,0,0.295410,-0.532715,-0.780273,-0.183105,-0.061035,0.000000,21.33,0
942606331,22311.447848,1777901143.039800,603,-1091,-1597,-2,0,0,0.294434,-0.532715,-0.779785,-0.122070,0.000000,0.000000,21.26,1
942607342,22311.447875,1777901143.040810,602,-1089,-1593,-2,0,0,0.293945,-0.531738,-0.777832,-0.122070,0.000000,0.000000,21.41,0
942608354,22311.447882,1777901143.041822,604,-1088,-1595,-2,-1,-1,0.294922,-0.531250,-0.778809,-0.122070,-0.061035,-0.061035,21.35,0
942609369,22311.447889,1777901143.042836,604,-1087,-1599,-3,-2,-1,0.294922,-0.530762,-0.780762,-0.183105,-0.122070,-0.061035,21.17,0
942610379,22311.447897,1777901143.043845,604,-1087,-1598,-3,-2,-1,0.294922,-0.530762,-0.780273,-0.183105,-0.122070,-0.061035,21.30,0
942611393,22311.447904,1777901143.044859,604,-1090,-1596,-2,-1,0,0.294922,-0.532227,-0.779297,-0.122070,-0.061035,0.000000,21.23,0
942612405,22311.447911,1777901143.045870,602,-1090,-1595,-2,-2,0,0.293945,-0.532227,-0.778809,-0.122070,-0.122070,0.000000,21.38,0
942613418,22311.447919,1777901143.046882,601,-1088,-1596,-3,-2,0,0.293457,-0.531250,-0.779297,-0.183105,-0.122070,0.000000,21.29,0
942614429,22311.455930,1777901143.047893,602,-1086,-1597,-3,-1,-1,0.293945,-0.530273,-0.779785,-0.183105,-0.061035,-0.061035,21.23,0
942615440,22311.455942,1777901143.048903,603,-1086,-1596,-2,-1,0,0.294434,-0.530273,-0.779297,-0.122070,-0.061035,0.000000,21.26,0
942616453,22311.455950,1777901143.049916,606,-1088,-1596,-2,-1,1,0.295898,-0.531250,-0.779297,-0.122070,-0.061035,0.061035,21.29,0
942617465,22311.455957,1777901143.050925,605,-1089,-1595,-2,-1,2,0.295410,-0.531738,-0.778809,-0.122070,-0.061035,0.122070,21.33,1
942618476,22311.455964,1777901143.051936,602,-1088,-1594,-2,-1,1,0.293945,-0.531250,-0.778320,-0.122070,-0.061035,0.061035,21.14,0
942619489,22311.455971,1777901143.052948,602,-1086,-1595,-3,-1,0,0.293945,-0.530273,-0.778809,-0.183105,-0.061035,0.000000,21.18,0
942620501,22311.455978,1777901143.053960,603,-1087,-1597,-3,-1,-1,0.294434,-0.530762,-0.779785,-0.183105,-0.061035,-0.061035,21.20,0
942621516,22311.455985,1777901143.054974,604,-1088,-1598,-3,-1,-1,0.294922,-0.531250,-0.780273,-0.183105,-0.061035,-0.061035,21.29,0
942622528,22311.464031,1777901143.055985,603,-1089,-1594,-3,-1,1,0.294434,-0.531738,-0.778320,-0.183105,-0.061035,0.061035,21.18,0
942623538,22311.464062,1777901143.056994,603,-1088,-1594,-2,0,1,0.294434,-0.531250,-0.778320,-0.122070,0.000000,0.061035,21.33,0
942624551,22311.464079,1777901143.058007,605,-1088,-1597,-2,0,0,0.295410,-0.531250,-0.779785,-0.122070,0.000000,0.000000,21.29,0
942625565,22311.464092,1777901143.059020,605,-1090,-1593,-3,0,0,0.295410,-0.532227,-0.777832,-0.183105,0.000000,0.000000,21.23,0
942626577,22311.464104,1777901143.060032,604,-1091,-1594,-2,-1,0,0.294922,-0.532715,-0.778320,-0.122070,-0.061035,0.000000,21.35,0
942627589,22311.464117,1777901143.061043,603,-1090,-1597,-1,-1,0,0.294434,-0.532227,-0.779785,-0.061035,-0.061035,0.000000,21.21,0
